Time (s),Acceleration x (m/s^2),Acceleration y (m/s^2),Acceleration z (m/s^2),Absolute acceleration (m/s^2)
0.0,0.07661445403,0.1847335619,9.993017938,9.995018948
1.0,-0.596781006665,-0.017760970250000008,9.9391849695,9.980964864
2.0,-2.2435148409,-0.69965059985,9.867559247500001,10.257648373999999
3.0,-4.5997765600000005,-1.85536323455,7.7520769385,9.609903144
4.0,-6.6939971825,-4.8716710745,5.3041774,9.905029739500002
5.0,-3.6086438265,-2.810354025,8.8734790185,10.016948689
6.0,-3.073849749,-2.2026989495000002,9.250703962,9.993797276999999
7.0,-3.1040300565,-2.175213353,9.242810747,9.989808157999999
8.0,-3.0808892855,-2.16033307,9.2568325405,9.992393867
9.0,-3.0883389745,-2.1578005495,9.254228476000002,9.9917337465
10.0,-3.0656465245,-2.192506913,9.255435104,9.993434730499999
11.0,-3.0833025970000003,-2.2020598635,9.247336823000001,9.993451329500001
12.0,-3.082002505,-2.207755611,9.2470065205,9.9940009155
13.0,-3.0757670255000003,-2.2130722265,9.247799444,9.993989779
14.0,-3.0743601115,-2.2105444895,9.2469886575,9.992262883999999
15.0,-3.080684185,-2.2167636815,9.2492206885,9.9976516075
16.0,-3.0838319965,-2.2087226055,9.2479758965,9.995676187499999
17.0,-3.0790817415,-2.207196423,9.247498973999999,9.993434088
18.0,-3.0727146735,-2.2029946505,9.249826399,9.992701229
19.0,-3.0811564325,-2.202985112,9.2462636995,9.9919999635
20.0,-3.067158375,-2.2024700255000003,9.249201609499998,9.990298948
21.0,-3.077188339,-2.195611741,9.2498502485,9.9924739765
22.0,-3.0535180950000003,-2.1923542835000003,9.258463677,9.9924989315
23.0,-2.9373039505,-2.1343592675,9.307688027000001,9.9908899555
24.0,-2.9519839185,-2.1419234815,9.304258778000001,9.993585082
25.0,-2.9308319765000004,-2.1054667755,9.3214094685,9.9955713175
26.0,-2.96915825,-2.1159640465000003,9.306543297000001,9.9952642955
27.0,-2.960516244,-2.1482666740000003,9.2981874265,9.991799130499999
28.0,-2.999281303,-2.1308109645,9.291257587,9.993182226
29.0,-3.024429949,-2.124315153,9.286998537999999,9.9954150305
30.0,-3.0145669765000003,-2.1474177479999996,9.284685382,9.995218882
31.0,-3.025197769,-2.1475799044999997,9.283335642,9.9972119155
32.0,-3.0123471564999997,-2.1547716215,9.2863629985,9.9976926015
33.0,-3.0208576865000003,-2.1594221300000003,9.282887328,9.9980356825
34.0,-3.0211629240000004,-2.1672390475,9.280698235,9.9977914495
35.0,-3.0131838525,-2.1650546985,9.2825487375,9.996622016
36.0,-3.0222550975,-2.1628131175,9.2800591115,9.9965639875
37.0,-3.0075798955,-2.1635142075,9.285581999,9.997419153
38.0,-3.0223791010000003,-2.1555875955,9.284780772,9.999424367500001
39.0,-2.991430363,-2.1513241274999997,9.294550143,9.998279675500001
40.0,-2.9937965565,-2.1468978915,9.2940475625,9.997567487000001
41.0,-3.0022859485,-2.1486959260000003,9.291162122500001,9.9978157625
42.0,-2.987820597,-2.1542903395,9.2953925,9.998618545
43.0,-3.000359143,-2.1487626965,9.290689955000001,9.9968126375
44.0,-2.9932003915,-2.1532458585,9.293456180500002,9.998207196500001
45.0,-2.9941351784999997,-2.1500742600000002,9.293203372499999,9.9975665995
46.0,-3.0000579885,-2.1484443535000004,9.2911453615,9.9970776495
47.0,-2.995858239,-2.15210683,9.29296657,9.99829818
48.0,-2.9942591810000003,-2.1522395315000002,9.293122303,9.997993811499999
49.0,-2.9788256564999998,-2.157376091,9.297314552500001,9.9983865285
50.0,-2.9782485684999997,-2.1593601285000004,9.2980395085,9.999317149500001
51.0,-2.980575997,-2.1422382635000004,9.302551366500001,10.000536602
52.0,-3.0098103839999997,-2.1093034865,9.2998105325,9.9997373175
53.0,-3.022503129,-2.1165649925,9.295106433499999,10.00072145
54.0,-3.0082476005,-2.146578347,9.2903608595,9.998409732999999
55.0,-3.014824495,-2.145138012,9.2889873005,9.9988035615
56.0,-3.0202138285,-2.146635579,9.2867123405,9.9986381885
57.0,-3.011786437,-2.1525638455,9.288820355999999,9.999328679
58.0,-3.01384526,-2.1541856079999997,9.289191998,10.000647725
59.0,-2.9542837840000002,-2.2186784915,9.2888046775,9.996639456499999
60.0,-2.9075131215,-2.2159910135,9.3012656495,9.9939096385
61.0,-2.9696876595,-2.193236619,9.2920922245,9.9986596855
62.0,-2.9757637519999998,-2.1894307,9.2925071035,9.999973847500002
63.0,-2.9748194420000003,-2.2209177650000003,9.285834818,10.000484716999999
64.0,-2.9694491574999997,-2.211689118,9.285109881,9.996172476
65.0,-3.0045704545,-2.215571352,9.2766395395,9.999612268
66.0,-3.017824398,-2.2086033725,9.2715506555,9.997344385
67.0,-3.0236000465,-2.2132677689999998,9.267968894,9.996797711500001
68.0,-3.0173739834999997,-2.216944248,9.269863553499999,9.997488439
69.0,-3.0271198139999997,-2.2144600995,9.267573058,9.9977598885
70.0,-3.029704778,-2.213592083,9.2683647355,9.999085049000001
71.0,-3.022390585,-2.21637048,9.270298313,9.9992798745
72.0,-3.032763935,-2.2144737584999996,9.266767074499999,9.998726199
73.0,-3.030001574,-2.216261243,9.2691066615,10.000455365
74.0,-3.0189785735,-2.2169639930000002,9.271259724,9.999272123499999
75.0,-3.0212916955,-2.2135396199999997,9.271841607999999,9.9997505005
76.0,-3.00881515,-2.2140022445,9.2761292175,10.000072475
77.0,-3.0012271595,-2.2114077334999998,9.278075101999999,9.99901916
78.0,-3.0082476005,-2.2058705515,9.2747985525,9.99686574
79.0,-2.9892704705,-2.209333077,9.2818667065,9.9985042915
80.0,-3.0046801655,-2.2083505985,9.276849403,9.9982430175
81.0,-3.01719963,-2.2135396204999997,9.2698623005,9.9966797915
82.0,-3.0083096065,-2.21565243,9.273882839,9.9981983405
83.0,-3.012840477,-2.202908803,9.274169069,9.997021044499999
84.0,-3.036720463,-2.2136302375000003,9.265722538999999,9.9987728115
85.0,-3.010861189,-2.2159433585,9.274851020500002,9.999931479499999
86.0,-3.0233330179999998,-2.203862668,9.2723471575,9.998726704
87.0,-3.0245463065,-2.208635384,9.2699278395,9.997899993499999
88.0,-2.903384485,-2.1972333035,9.3137116715,10.0002280225
89.0,-2.8910128669999997,-2.1786949580000003,9.3179420855,9.9964591505
90.0,-2.956376481,-2.1879903655,9.29906976,10.000020901500001
91.0,-2.97873027,-2.2102630965000003,9.2851432595,9.998604007
92.0,-2.99946728,-2.2089229169999998,9.278776188,9.9985921205
93.0,-2.9848779475000002,-2.2119562055,9.2839223605,9.999688520500001
94.0,-3.008161753,-2.18662157,9.281556726,9.998884895
95.0,-3.015120193,-2.184527838,9.2809223845,9.9999321815
96.0,-3.016369755,-2.1825676465,9.280893772,9.9998538925
97.0,-3.017285465,-2.1815422425,9.2815519255,10.000517245000001
98.0,-3.0137561670000004,-2.182395951,9.2821385455,10.000184496500001
99.0,-3.0159500545,-2.1821050225,9.283206863499998,10.001773400000001
100.0,-3.0179150155,-2.1794485105000003,9.281761751000001,10.000445496000001
101.0,-3.018005632,-2.1790908115,9.281799914499999,10.000430404500001
102.0,-3.011421622,-2.185507781,9.2829107645,10.000877
103.0,-3.0188211860000003,-2.1815803975000003,9.282047925,10.00144947
104.0,-3.0201136725,-2.180240218,9.2807697585,10.000361088
105.0,-3.011471662,-2.1881429835,9.2827824045,10.001349399999999
106.0,-3.017705165,-2.182863345,9.2817236225,10.001092215
107.0,-3.0208454785,-2.181880521,9.281152693500001,10.00129522
108.0,-3.0137895520000004,-2.1846470705,9.2825296485,10.001048364999999
109.0,-3.015757527,-2.1844003255000004,9.2818996055,10.00100288
110.0,-3.017652704,-2.182224256,9.2810129895,10.0002767215
111.0,-3.0106751994999996,-2.1883671414999997,9.281365943499999,9.999844299500001
112.0,-3.0162314445,-2.1848569209999997,9.279892201500001,9.9993826085
113.0,-3.0166988385,-2.185982481,9.2791148085,9.9990482365
114.0,-3.0097356289999997,-2.1896119345000002,9.281819007,10.000254415
115.0,-3.0202472275,-2.1828347289999996,9.2797682195,10.000042021999999
116.0,-3.0206240070000003,-2.1834261245,9.2810416165,10.001463305
117.0,-3.014199729,-2.1832448905,9.282968460500001,10.001276225
118.0,-3.023003881,-2.1790621955000002,9.2821051745,10.002217045
119.0,-3.013627409,-2.1807505355,9.2844469275,10.001929095
120.0,-3.0127927645,-2.1794198945,9.28447075,10.001413455
121.0,-3.0203139845,-2.1790192715,9.2821862515,10.001470495
122.0,-3.0112236575,-2.185553242,9.2838221415,10.001679215
123.0,-3.0058629485,-2.1941189455,9.283970012000001,10.00207446
124.0,-3.1256875385000003,-2.2371191755,9.2369015645,10.004960324999999
125.0,-3.388715867,-2.496575278,9.059458858,9.993997294
126.0,-3.5163812125,-2.6035130765,8.988915848000001,9.997451352
127.0,-3.488900327,-2.5182756545,9.025673068,9.998847021
128.0,-3.4808449095,-2.5206698525,9.0293120445,9.9999276685
129.0,-3.483973585,-2.502679972,9.033408879,10.000198382
130.0,-3.485108683,-2.500290542,9.0333850395,9.9999748515
131.0,-3.4746543305,-2.5075876035,9.036089258499999,10.000609260000001
132.0,-3.4832438784999997,-2.4935610295000004,9.036036772500001,10.0000399035
133.0,-3.4772679185,-2.501878726,9.037667897999999,10.001513585000001
134.0,-3.5398891835,-2.5268175494999996,9.0187622825,10.0129808755
135.0,-3.6212253005,-2.3544016615,8.9799685875,9.9664208975
136.0,-3.60448974,-2.1449853325,9.0514464305,9.9770921595
137.0,-3.395826951,-2.1720989509999997,9.258120422000001,10.09781336
138.0,-3.4474453585,-2.310519105,9.0048501145,9.9186433285
139.0,-3.7267275470000003,-2.7584256099999998,8.9136273055,10.05102751
140.0,-4.2019575095,-3.049883881,8.499730785499999,9.965779976
141.0,-5.3160768725,-3.1147657874999997,7.872511977,10.0358207735
142.0,-5.8022190555,-3.0036643435,7.6218838575,10.063169499
143.0,-4.309596438,-3.1740199020000004,8.312301051,9.886590587
144.0,-5.41385282,-1.6731034400500002,7.6071323594999996,9.811186685500001
145.0,0.40485855255000003,1.6833670285,9.817009139,9.975921866
146.0,0.9906558031999999,1.9681053375,9.7267639685,9.974263022999999
147.0,1.168561198,1.7130751635,9.772497039000001,9.9911129475
148.0,-0.1904010378,1.0303795151,9.7172586965,9.8139521355
149.0,-2.622289951,-0.8104229641,9.475053234499999,9.977913580500001
150.0,-5.882438823499999,-4.74911184,6.381477107,9.947222867499999
151.0,-4.779360763,-3.6035549465,8.0057955475,10.044161004500001
152.0,-4.3585392894999995,-2.298223785,8.7059039735,10.004782531
153.0,-4.465500954,-2.3826980884999998,8.618968718000001,9.997408774
154.0,-4.3860201095,-2.543591293,8.609539756,9.991719309499999
155.0,-4.3031960715,-2.554169621,8.655515996,9.997971797
156.0,-4.3074598895000005,-2.5546799485,8.65057022,9.995650669
157.0,-4.318462714,-2.542379846,8.645762738,9.993101787
158.0,-4.311414699,-2.556553798,8.649720038000002,9.9970964575
159.0,-4.3142466335,-2.5477739375,8.6498548255,9.996192947
160.0,-4.3203513650000005,-2.5469393059999996,8.647126783,9.9962571425
161.0,-4.311509043,-2.5554286935,8.650379446999999,9.9974198365
162.0,-4.318615332,-2.538721747,8.6489152735,9.994965172
163.0,-4.307898667,-2.5571218460000003,8.6499311365,9.995912367
164.0,-4.286947028,-2.5499965085,8.6611437815,9.9948281535
165.0,-4.1989909910000005,-2.4307776655,8.741573782,9.997796550499999
166.0,-4.111750476,-2.355970776,8.802225292500001,9.996848134
167.0,-4.152165763999999,-2.441794802,8.7574794605,9.994861228000001
168.0,-4.1902108170000005,-2.4888107855,8.730222666,9.998443090999999
169.0,-4.1848071650000005,-2.4970617115,8.729826809,9.997892446
170.0,-4.1855177735,-2.5023747355,8.728448484000001,9.998313005
171.0,-4.1841203575,-2.4988120525,8.7303704795,9.9985147535
172.0,-4.1854748535,-2.5007865515,8.7299842,9.9992382445
173.0,-4.193492126,-2.4851622545,8.7300175725,9.998731424999999
174.0,-4.1943220404999995,-2.4766299380000003,8.731138354999999,9.997940663000001
175.0,-4.1933633189999995,-2.480335701,8.730713909,9.998086390000001
176.0,-4.1976414895000005,-2.4763056245,8.730246488999999,9.9984744245
177.0,-4.1982185795,-2.4749892915,8.730365742,9.9984948975
178.0,-4.1970357895,-2.4823006615,8.730375290000001,9.999819282499999
179.0,-4.1993409475,-2.4743824625,8.731826089,10.0000916115
180.0,-4.196835459,-2.4778651925,8.729545409,9.997910807
181.0,-4.197598442,-2.4817109825,8.7294203585,9.999076031000001
182.0,-4.1981613475,-2.4755473025,8.7303085005,9.998558953
183.0,-4.196797268,-2.4802689305000003,8.729497713499999,9.9984506015
184.0,-4.197307641,-2.4819477315,8.7294214295,9.999014121
185.0,-4.198423655499999,-2.4786330535000003,8.729698016,9.998900789
186.0,-4.195399891499999,-2.488209851,8.7293260185,9.999685358
187.0,-4.1983998155,-2.4815137235,8.728262456500001,9.998351771500001
188.0,-4.197808392,-2.4850144055000003,8.728491409,9.999174769
189.0,-4.1966351435,-2.48441824,8.73016066,9.9999899355
190.0,-4.1979228825,-2.481561417,8.730456358000001,10.000078745500002
191.0,-4.197364864,-2.490613589,8.7285438535,10.00042629
192.0,-4.199539681499999,-2.479811076,8.7295072605,9.9994947705
193.0,-4.1966780759999995,-2.488391085,8.7289873975,9.999972059000001
194.0,-4.1963537715,-2.4840796185,8.7299651075,9.9996171485
195.0,-4.2002374125,-2.479741959,8.723355175,9.994401075999999
196.0,-4.195872058000001,-2.4873275264999997,8.713735122500001,9.986056572999999
197.0,-4.1990961365,-2.4801020045,8.7084698165,9.981020255
198.0,-4.198552427999999,-2.4822625069999997,8.7061423685,9.9792982255
199.0,-4.197965803000001,-2.4838745375,8.7072440715,9.9804141325
200.0,-4.200517394,-2.4790193685,8.706571598,9.979693035
201.0,-4.196162988999999,-2.4903751224999997,8.707511156999999,9.981509304500001
202.0,-4.1976748745,-2.4812371029999998,8.713324961000001,9.984940972
203.0,-4.198871978,-2.482548666,8.7173788725,9.989308162
204.0,-4.19527589,-2.4913003710000003,8.7204455535,9.9926533385
205.0,-4.1984331919999995,-2.4819906555,8.7254581,9.996036385
206.0,-4.1961677665,-2.4845422425,8.727046275,9.997106191
207.0,-4.1968592295,-2.4850679365,8.728602923,9.998885386
208.0,-4.1978084025,-2.47956784,8.732120862,10.000989875
209.0,-4.1954762080000005,-2.4872702945,8.73092851,10.0008841265
210.0,-4.1936448015,-2.4822386605,8.7332511685,10.00089314
211.0,-4.1971979455,-2.4791529095,8.734424437000001,10.002641655
212.0,-4.193888879499999,-2.489171594,8.7326044,10.002153074999999
213.0,-4.1966256015,-2.4790384455,8.734305180500002,10.00226906
214.0,-4.196625628,-2.477922424,8.73444827,10.00211741
215.0,-4.1953748525000005,-2.487543424,8.7323205,10.00212355
216.0,-4.1953951355,-2.4781513520000003,8.734510288500001,10.00171336
217.0,-4.176985427,-2.4589309865,8.7476688495,10.000806041
218.0,-4.203107112,-2.4839031535,8.7310620495,10.00336635
219.0,-4.208062454,-2.476048081,8.729454808,10.002099484999999
220.0,-4.209459872,-2.476439165,8.729345073000001,10.002689365
221.0,-4.2053176205,-2.484382241,8.7302100905,10.0036724
222.0,-4.210628356,-2.4751276019999997,8.728963544500001,10.002522335
223.0,-4.208114923,-2.4838029974999998,8.730103422500001,10.0046112
224.0,-4.208677703,-2.47844228,8.729054149,10.00260205
225.0,-4.21045767,-2.4775294705,8.72898633,10.003066435000001
226.0,-4.21116244,-2.4964417,8.727256127,10.006575340000001
227.0,-4.2640016835,-2.5092569344999998,8.694824839999999,10.0042231215
228.0,-4.2260975795,-2.52655441,8.703910768,10.000100184
229.0,-4.2074900415,-2.5308762160000002,8.715685757,10.0035746
230.0,-4.210089391,-2.5168067025000003,8.716658706,10.00196969
231.0,-4.2086252405,-2.5269272025,8.7153185395,10.002734895
232.0,-4.2104041965,-2.5182851915,8.715223141500001,10.001219315
233.0,-4.210086202499999,-2.522201424,8.716250748,10.00297148
234.0,-4.205439301,-2.530351576,8.713820942000002,10.00095869
235.0,-4.2167092405,-2.5198590679999997,8.713692201499999,10.002937925000001
236.0,-4.2197424875,-2.531958855,8.711908462,10.00572361
237.0,-4.1251188975,-2.552901012,8.740963197,9.996994584500001
238.0,-3.945043449,-2.524213521,8.8439092275,10.0076263105
239.0,-3.9399212005,-2.4476753755000002,8.8651709135,10.0053074
240.0,-3.9905519035,-2.4330472060000004,8.842043066999999,10.0013810335
241.0,-3.993413908,-2.4903798960000003,8.8263962395,10.0027602805
242.0,-4.0342536315,-2.503815081,8.809512759499999,10.007595385
243.0,-3.9892503075,-2.477722113,8.830621896,10.001670496500001
244.0,-4.013096892,-2.494662743,8.8166285835,10.003062289999999
245.0,-4.028554263,-2.496866169,8.8073283325,10.001631235
246.0,-4.0313395465,-2.5070534395,8.8045286735,10.00283675
247.0,-4.0376445895,-2.4968375535,8.80351282,10.00193126
248.0,-4.0413985225,-2.499479986,8.800487254,10.00144499
249.0,-4.0457619744999995,-2.5004193135,8.799320589499999,10.002417565
250.0,-4.0454090449999995,-2.4931270215000003,8.799973974,10.001028828
251.0,-4.046424910000001,-2.4987500515,8.798185493,10.00127095
252.0,-4.0496298945,-2.4936707235,8.793344631,9.9970398945
253.0,-4.050321446,-2.4933511795000003,8.791813666,9.995893761
254.0,-4.0477173964999995,-2.499799302,8.7921093585,9.996711743
255.0,-4.048065556499999,-2.4995131424999997,8.793912179,9.998365783499999
256.0,-4.051623471,-2.494057039,8.795032965,9.9994288975
257.0,-4.0444217955,-2.5038723025,8.797822998000001,10.00142171
258.0,-4.048213406,-2.4941953495,8.799435041999999,10.001955145
259.0,-4.0485186424999995,-2.4969567865,8.799978735,10.003246145
260.0,-4.0471832325,-2.5015067185,8.799368271,10.003306389999999
261.0,-4.0517379345,-2.4951015205,8.799978773,10.004086534999999
262.0,-4.0465298354999995,-2.506299887,8.799306270999999,10.004186279999999
263.0,-4.0500352865,-2.4966181645,8.800718,10.00442535
264.0,-4.050302369,-2.5017117994999998,8.7991155115,10.00439687
265.0,-4.0481180195,-2.5015925670000003,8.800617866,10.004804794999998
266.0,-4.062764606,-2.4996896074999997,8.797036090999999,10.0071169
267.0,-4.246722397999999,-2.5023366205000004,8.7036433355,10.0032150265
268.0,-4.4393221050000005,-2.4642535519999997,8.612072251499999,9.997454423
269.0,-4.293213795,-2.4712263155,8.691844019,10.005387417
270.0,-4.1401088255000005,-2.5013493374999998,8.7616524885,10.00822563
271.0,-4.11323357,-2.4666620564999997,8.778430960000001,10.003200665000001
272.0,-4.0979431205,-2.472041851,8.7867295615,10.005537435
273.0,-4.0820279,-2.4580582005,8.7974462645,10.005015265
274.0,-4.068673798,-2.4612154915,8.8014096055,10.003835455
275.0,-4.05156154,-2.403191891,8.8304740575,10.008458975
276.0,-3.9888544335,-2.422474293,8.8495801055,10.004726995
277.0,-3.9908623155,-2.4258175875,8.8484832,10.005371075
278.0,-3.9875558025,-2.4315812745,8.8503329285,10.007076999999999
279.0,-3.9841184944999997,-2.42987628,8.852770836000001,10.00745008
280.0,-3.985968992,-2.4371685725,8.852603916,10.00981212
281.0,-3.9860166845,-2.426466215,8.852789922500001,10.00739521
282.0,-3.985735295,-2.4279447044999998,8.8526277485,10.007498945
283.0,-3.9717516440000002,-2.4366153315,8.8574829365,10.008343665
284.0,-3.972560464,-2.4269058704999997,8.8598878095,10.008432785
285.0,-3.966095229,-2.4275583899999997,8.8616656365,10.007602649999999
286.0,-3.970158691,-2.4283834825,8.8607069905,10.00856481
287.0,-3.9744823670000002,-2.423095621,8.859254077500001,10.007711369999999
288.0,-3.96960606,-2.4318115369999997,8.859470798,10.008083305
289.0,-3.974393848,-2.4259940525,8.859710202999999,10.00878219
290.0,-3.9736832195,-2.4257031235,8.860463777,10.009096605
291.0,-3.96840835,-2.435208381,8.86035408,10.009215950000002
292.0,-3.9722714999999997,-2.4256983545,8.859686366999998,10.007846865000001
293.0,-3.9714608685,-2.4284277035,8.858675893000001,10.007293659999998
294.0,-3.969738991,-2.431049533,8.858455882000001,10.007053045
295.0,-3.973053669,-2.4248828005,8.8596768285,10.007951405
296.0,-3.9738644535,-2.4305058305,8.858269854500001,10.008392175000001
297.0,-4.034978598,-2.4691754995000004,8.818875024,10.007700045
298.0,-4.090911816,-2.493761,8.784477275499999,10.006084365
299.0,-4.052272108,-2.513291717,8.7978087875,10.006961075
300.0,-4.060421458,-2.5116194165000003,8.7942154425,10.00667237
301.0,-4.0570170395,-2.5206938709999998,8.7934747935,10.006922325000001
302.0,-4.05971224,-2.5135826405,8.793988488,10.00667765
303.0,-4.0613338105,-2.5158194524999997,8.794198340000001,10.008083809999999
304.0,-4.0561972505,-2.516592083,8.791150734999999,10.003516475
305.0,-4.0608473385,-2.511360137,8.7923382935,10.005130175
306.0,-4.061319501,-2.521299403,8.789376542,10.005219239999999
307.0,-4.0437016485,-2.4894308115,8.806841909,10.005521425
308.0,-4.0606565655,-2.4943336615,8.798500306000001,10.006221069999999
309.0,-4.0899402385000005,-2.5340812145,8.7728699555,10.00563453
310.0,-4.0890340285,-2.5656159895,8.7641420535,10.005637244999999
311.0,-4.085499961,-2.5764233445,8.7629306665,10.00591042
312.0,-4.086902142,-2.5754408609999997,8.7605507745,10.004145245
313.0,-4.083816409500001,-2.5772341315,8.765081654500001,10.00731581
314.0,-3.991301127,-2.8023129195000003,8.731071587999999,10.000918213999999
315.0,-4.0176659645,-2.9571538725,8.666556987,9.999790479
316.0,-4.103079816,-2.94878849,8.627443775,9.9982578915
317.0,-4.1652432525,-2.8485563215,8.656388853500001,10.020145225
318.0,-4.4740250725,-2.8400585874999997,8.5038980755,10.024445145
319.0,-4.1310376525,-2.2547942945,8.993184368,10.165128499000001
320.0,-0.91395550207,-7.465936451999999,5.2879998585,9.8473511025
321.0,0.053039671899999974,-9.851329218499998,1.8231178255,10.044076800500001
322.0,1.33719980425,-9.569595572499999,2.14749876595,10.0481621015
323.0,1.164244956,-9.7321294425,0.6731522250499999,9.8388424895
324.0,0.672398673,-10.148601325,1.8191688105,10.345931745
325.0,0.725352499135,-9.634181777999999,0.71811266001,9.735477122
326.0,0.84757124755,-9.910134970000001,0.28461907384999996,9.9562796155
327.0,1.06145167355,-9.682852749,0.11192654399999999,9.746428075
328.0,1.1742080805000001,-9.733583989500001,0.37165927374999996,9.813175839
329.0,0.72994059015,-9.8293664695,1.5565220320000002,9.985681399499999
330.0,0.8554835606,-9.409870830500001,2.3816154455,9.881325284999999
331.0,1.22322245045,-9.561907436,1.6314433788,9.892313876500001
332.0,1.0050353182,-9.8984263075,1.5270571385,10.080330355000001
333.0,1.210569427,-9.842601369499999,1.5087953870000002,10.042606363
334.0,1.39356369885,-9.556465619,2.011215277,9.895175394999999
335.0,-0.31248147655,-9.727512741,0.76101274965,9.762711504999999
336.0,0.12299137905,-7.2714671895,6.2303471255,10.0738754745
337.0,-1.0766058489499999,-2.0614440505,9.4606697505,9.7976640305
338.0,-1.3800998930000001,-2.4568324835,9.658324139,10.062121815
339.0,-3.7012831960000003,-2.5587863725,8.9028533255,9.987134514000001
340.0,-4.2809804719999995,-2.78218637,8.5218318915,9.935609202
341.0,-5.061981472499999,-3.1317398185,8.129569099000001,10.080236235000001
342.0,-3.3122206565,-1.7940869325,9.198408457,9.9498725035
343.0,-2.496928212,-4.008847521,8.6761386425,9.926819674
344.0,-4.1956429255,-3.293043202,8.460264633000001,10.0078517
345.0,-4.5540673355,-3.0942815345000003,8.353670219000001,10.006662689999999
346.0,-4.393302903,-3.1986916165,8.389411556999999,9.997143506
347.0,-4.145297931,-3.1531397935000003,8.534904643499999,9.99864694
348.0,-4.1110684504999995,-3.122019935,8.561550834,9.99759831
349.0,-4.1173115204999995,-3.1076166315,8.563396549,9.997070573
350.0,-4.11307159,-3.1063145975,8.564770124999999,9.9961095785
351.0,-4.0847704215,-3.1069965735,8.586675613499999,10.003560792
352.0,-3.8048014219999997,-2.8972654395,8.771281875,9.9906995885
353.0,-3.9258087375,-2.916872144,8.735693147,10.011842488500001
354.0,-4.0567553185000005,-2.998026947,8.6362002415,10.001473325
355.0,-4.051861937,-3.0125924525,8.632461088,10.000642597999999
356.0,-4.048671261,-3.0144811039999997,8.6344022085,10.001587019999999
357.0,-4.043596703,-3.0232518859999997,8.633386344,10.0013105695
358.0,-4.0352551595,-3.0332388455,8.635060390500001,10.002404590000001
359.0,-4.0355365495,-3.0302675580000002,8.634120814,10.0008060365
360.0,-4.048264323,-3.028109727,8.627857374000001,9.999894184999999
361.0,-4.049534508,-3.0196415095,8.632461107000001,10.00182255
362.0,-4.064724529,-3.0107066895,8.6271760395,10.0007258865
363.0,-4.0641143235,-3.013284004,8.626218058500001,10.00042762
364.0,-4.05745658,-3.019044333,8.627726407499999,10.00076456
365.0,-4.0667803745,-3.0129310745,8.626351591999999,10.001519965
366.0,-4.062604432500001,-3.016755765,8.6270016325,10.00154014
367.0,-4.0600270155,-3.0195270455000003,8.626141757,10.0005848995
368.0,-4.067268295,-3.0138569715,8.625008818,10.00083916
369.0,-4.0553864655,-3.0212917005,8.627987478,10.000831465000001
370.0,-4.062772275,-3.017832315,8.624819866500001,10.0000474765
371.0,-4.069053375999999,-3.0160319155,8.623143246,10.000612234999998
372.0,-4.053941361,-3.0212249245000002,8.627100393500001,9.9994550905
373.0,-4.067667468,-3.0140757115000003,8.624148180999999,10.00032521
374.0,-4.0630555345,-3.018072406,8.624753874,10.000180624
375.0,-4.0597599330000005,-3.021668471,8.625121116999999,10.0002428
376.0,-4.0667640635,-3.0166042529999997,8.624015122,10.00060539
377.0,-4.058209904,-3.02266049,8.625717277,10.0004301275
378.0,-4.064920339,-3.0176717795,8.6253834245,10.0013589
379.0,-4.0656929690000005,-3.0190453445000003,8.624400933,10.001240020000001
380.0,-4.058124056,-3.0250689975,8.6247681755,10.000305189999999
381.0,-4.0646580265,-3.0191645775,8.623466167,10.0000498675
382.0,-4.0613958100000005,-3.022827416,8.623809539,10.000127902500001
383.0,-4.067634083,-3.019822744,8.6227030715,10.000800462
384.0,-4.067772393,-3.0189308805,8.621625204499999,9.999657274
385.0,-4.059704361,-3.0254969865,8.6226854525,9.999277941999999
386.0,-4.0696091160000005,-3.0192175170000004,8.621338209000001,10.000243300000001
387.0,-4.061419657,-3.02617548,8.6213962925,9.9990677145
388.0,-4.0657025075,-3.021878321,8.62246459,10.000430097
389.0,-4.0532021505,-3.0152871489999997,8.625650544500001,9.996115746000001
390.0,-4.25400041,-3.0848430455,8.517983022500001,10.008723835
391.0,-4.479317689,-3.161023484,8.3537846305,9.9929084855
392.0,-4.275309881,-3.1477552610000004,8.471100638,9.997315880999999
393.0,-4.283331776,-3.1434533235,8.4694266035,9.997974988500001
394.0,-4.2722859685,-3.1394470795,8.479804577,10.0007823935
395.0,-4.2652941235,-3.144955631,8.474257871999999,9.994829767
396.0,-4.253051345,-3.1332565185,8.4906119295,9.9998122175
397.0,-4.25733909,-3.1265556275,8.4865341795,9.9960791305
398.0,-4.2145009345,-3.0811563415,8.536955414000001,10.006775984499999
399.0,-3.9992611474999995,-3.1046357455,8.61490523,9.992621025
400.0,-4.050860429,-3.0216208305,8.625464498500001,9.996970264000002
401.0,-4.1134291315,-2.950643736,8.6257459045,10.001506965
402.0,-4.1165625905,-2.9449968595,8.6248874285,10.0003923115
403.0,-4.117096888,-2.97309294,8.6125253245,9.998294906
404.0,-4.0824524425,-2.969606559,8.6335198925,10.0011371005
405.0,-4.080878515,-2.9246509339999998,8.650150517499998,10.001619145
406.0,-4.0985249995,-2.9178021885,8.644374856999999,10.001840275
407.0,-4.1045439130000005,-2.9198816125000002,8.6402875455,10.00138015
408.0,-4.1180840365,-2.9289242460000002,8.6320604685,10.00248461
409.0,-4.117979056999999,-2.928504546,8.632027086499999,10.00228937
410.0,-4.108874447,-2.9228004375000003,8.6386993835,10.002638375
411.0,-4.103246606,-2.9127562465,8.6423574445,10.000559509999999
412.0,-4.098601292,-2.898972907,8.6506131465,10.001784950000001
413.0,-4.1011147195,-2.8748925955000004,8.657934033,10.002199595
414.0,-4.117869365000001,-2.8530157025,8.6592885415,10.00399342
415.0,-4.1149171545000005,-2.8499442335,8.6605905535,10.00302881
416.0,-4.1235306045,-2.866861058,8.652597169,10.00449283
417.0,-4.109008012,-2.850492712,8.660404551,10.0005947785
418.0,-4.162505667,-2.966096367,8.6072457055,10.010809485
419.0,-3.9327779095,-3.1232361424999997,8.6405445615,9.994271034
420.0,-4.0058189265,-3.1381879765000003,8.611313947,10.0025824035
421.0,-4.005752137,-3.1432673204999997,8.603277632000001,9.997194768
422.0,-4.0479701705,-3.1311103265,8.591397245500001,10.000111388
423.0,-4.0253111215,-3.1331134350000003,8.601217285,10.000112778
424.0,-3.9801265595000004,-3.1178372430000003,8.624668053,9.997378960999999
425.0,-4.089193462,-3.080828616,8.5905522595,10.000546551500001
426.0,-4.1167629895,-3.0775650785,8.580418261999998,10.002139369999998
427.0,-4.119447993,-3.0763155385,8.5784199285,10.001142841
428.0,-4.128228313999999,-3.0784140695,8.574156175999999,10.00175274
429.0,-4.1228008245000005,-3.082172308,8.5757729675,10.002057825000001
430.0,-4.123807150999999,-3.0768020305,8.575763415499999,10.000810715
431.0,-4.111483271,-3.0548487404999998,8.590572142500001,10.001731588
432.0,-4.0986299504999995,-3.050179539,8.5973398105,10.0008313095
433.0,-4.122247678,-3.0375217255,8.592069711499999,10.0021771215
434.0,-4.1332267545,-3.0411798274999997,8.583289393,10.000326513000001
435.0,-4.100695026,-3.0169945365,8.6079563295,10.000746832
436.0,-4.0889659225,-3.0145076445,8.614727882499999,10.00102278
437.0,-4.091475921000001,-3.0149675745,8.6135936715,10.001211
438.0,-4.091132529499999,-3.0188593409999998,8.6128830245,10.001631745000001
439.0,-4.091776388,-3.016674992,8.61155239,10.00008983
440.0,-4.0934885745,-3.0157688205,8.612420403000002,10.001266059999999
441.0,-4.084670099,-3.019822744,8.617342337,10.003122795
442.0,-4.0900594325,-3.012034442,8.615892465,10.001727005
443.0,-4.0888718715,-3.0114955085,8.6178287965,10.002747335
444.0,-4.085352112,-3.017333158,8.6163217155,10.001770865000001
445.0,-4.089739888,-3.0110948855000004,8.6152390975,10.000750475
446.0,-4.0885988565,-3.0142621735,8.614945334000002,10.00098558
447.0,-4.084059626,-3.0157831285,8.617065731499999,10.001415675
448.0,-4.0884235945,-3.019827533,8.6135841215,10.001422685000001
449.0,-4.0614626135,-3.0277827535000004,8.624448632,10.0022081495
450.0,-4.034091445,-3.0326045414999996,8.634335444000001,10.001127895
451.0,-3.977904068,-3.075290085,8.6457579675,10.001608695
452.0,-4.053683852000001,-3.0274393689999997,8.630062135500001,10.00379668
453.0,-4.121770726499999,-2.978415495,8.6111517825,10.000640482000001
454.0,-4.138673128,-3.0163602165,8.5910443155,10.00165421
455.0,-4.1371183745,-3.017619324,8.593972679,10.0039065
456.0,-4.0314206995,-3.1070251984999997,8.6059722865,9.998445724500002
457.0,-4.0699459000000004,-3.0130045225,8.626074832499999,10.002614045
458.0,-4.0719741655,-2.9989283469999997,8.628965178,10.0016887855
459.0,-4.084341016,-2.9942305649999996,8.6240289335,10.001057431
460.0,-4.088781254000001,-2.991669439,8.6232229055,10.001410185000001
461.0,-4.0918266185,-2.9891101065,8.622707824999999,10.00144574
462.0,-4.0822615915,-2.989942945,8.6268285165,10.001341194999998
463.0,-4.0829865285,-2.991192507,8.6257601985,10.001089208
464.0,-4.086248744500001,-2.9913498945,8.62483972,10.00167305
465.0,-4.09316903,-2.9921463714999996,8.622278591499999,10.00253274
466.0,-4.088123088,-2.996534147,8.622526608000001,10.001997315
467.0,-4.085886276,-2.9877490570000003,8.62680469,10.002143375
468.0,-4.07434517,-2.932698713,8.654053884500001,10.004776132
469.0,-4.0539461305,-2.9466088900000003,8.656698793,10.0027796
470.0,-4.0671858665,-2.951964844,8.6489391195,10.003014345
471.0,-4.0723748015000005,-2.9481016875000003,8.648409704999999,10.003526915
472.0,-4.0697898165,-2.9589137395,8.64682152,10.004293375
473.0,-4.0721792465,-2.9537199485,8.6458771995,10.00291453
474.0,-4.0744589819999995,-2.9546976595,8.646244433,10.004449595
475.0,-4.071522148,-2.9604214175,8.644668432,10.003583514999999
476.0,-4.0762045535,-2.957215861,8.643955164,10.00392581
477.0,-4.0720647825,-2.9630773570000004,8.643597451000002,10.003666105
478.0,-4.0641906325,-2.9739991029999997,8.643788244500001,10.00386917
479.0,-4.0736815825,-2.9662394169999997,8.641589571,10.003526279999999
480.0,-4.0972706565,-2.9899000245,8.6232181295,10.004400785000001
481.0,-4.1089841245,-2.9879493685,8.616483868500001,10.002778554999999
482.0,-4.0939130509999995,-2.974294801,8.630858615,10.00491258
483.0,-4.0918860825,-2.973612788,8.63268049,10.00545238
484.0,-4.0875221535,-2.9718815245,8.634182829,10.004450675000001
485.0,-4.0933792234999995,-2.9687863875,8.631717215999998,10.00379874
486.0,-4.090188204,-2.972663693,8.631058935999999,10.00307785
487.0,-4.0920037895,-2.977133406,8.629851382,10.00410741
488.0,-4.109537421,-2.9659723319999998,8.625068655,10.00386845
489.0,-4.085562008,-2.9745761914999997,8.631087542500001,10.0018214945
490.0,-4.104996947,-2.990076486,8.6180434285,10.003111175
491.0,-4.1023261269999995,-2.98892231,8.6193740645,10.002817075
492.0,-4.103776001,-2.9858937909999996,8.621334252499999,10.004196815
493.0,-4.0904123625,-2.9861704115,8.625912832000001,10.00275283
494.0,-4.0970322205,-2.9694634785,8.629098721,10.003237535
495.0,-4.0915283865,-2.9651472425,8.632504047000001,10.002641205
496.0,-4.088791041,-2.967700337,8.6342559665,10.003791835
497.0,-4.0901786655,-2.9609120850000004,8.635952252500001,10.003811044999999
498.0,-4.0872216859999995,-2.962838891,8.636252709,10.003433675
499.0,-4.089921122,-2.963711677,8.6344117605,10.003205125000001
500.0,-4.0927302525,-2.959548059,8.6358711635,10.004380995
501.0,-4.085762274,-2.965271245,8.635904538,10.003256775
502.0,-4.0925060945,-2.958756352,8.635131929,10.003417095
503.0,-4.090231128,-2.9597006775,8.6360094805,10.00352428
504.0,-4.086601674500001,-2.9626862725,8.6352606865,10.002278715
505.0,-4.091700079000001,-2.958684812,8.637115946,10.004779175
506.0,-4.093421804,-2.9631441274999997,8.6348219125,10.004823015
507.0,-4.0893344955,-2.963783217,8.63377266,10.002435089999999
508.0,-4.09492414,-2.9600345299999997,8.633982523499999,10.00379388
509.0,-4.0841931670000005,-2.9653332465,8.6373687225,10.003898795
510.0,-4.087603231499999,-2.962896123,8.635212987500001,10.002709535000001
511.0,-4.092205627,-2.958384345,8.635999936000001,10.003933790000001
512.0,-4.08824709,-2.9631250505000004,8.636572251,10.00421371
513.0,-4.092535053500001,-2.9591846175,8.635101962,10.003529835
514.0,-4.0905029795,-2.9591617445000002,8.636643778,10.004023530000001
515.0,-4.0893058794999995,-2.9614367105,8.636267035,10.00388155
516.0,-4.087441075,-2.967560519,8.635556380499999,10.0043271225
517.0,-4.0509557659999995,-2.9956279765,8.6405832455,10.002214689999999
518.0,-4.033247275,-3.0148483415,8.6429393015,10.002843555
519.0,-4.2205197640000005,-3.07603885,8.5394545495,10.01024711
520.0,-4.133140907,-3.0485198469999997,8.580766468,10.0006949775
521.0,-3.8550128800000003,-3.1880464770000003,8.655201243,9.9976402115
522.0,-3.9444711249999997,-3.0516150924999996,8.6719129345,10.00366606
523.0,-3.9474487085,-3.046350344,8.6733368805,10.004468565
524.0,-3.9672637125000003,-3.040702851,8.666776374000001,10.004906225
525.0,-3.9815812155000003,-3.033391464,8.662612767,10.004767659999999
526.0,-3.9922263410000003,-3.030033861,8.6577337235,10.003766689999999
527.0,-3.9921881865,-3.0279973605,8.660070693000002,10.005157025
528.0,-3.991048319,-3.029041842,8.660142258499999,10.00508088
529.0,-3.988215342,-3.0333485395000004,8.658969007,10.00423987
530.0,-3.9969193535,-3.023623893,8.657342656,10.003362095
531.0,-3.9959034884999998,-3.0253217715,8.6498262075,9.996965068
532.0,-3.990709697,-3.0301626335,8.6403352695,9.9881464015
533.0,-3.996184878,-3.023676356,8.633930045,9.9828283095
534.0,-3.999933565,-3.0280068995000002,8.628927056,9.981317315
535.0,-3.9941040615,-3.031471792,8.630753684999998,9.9816141595
536.0,-3.9997857155,-3.023323426,8.631836312,9.9823529825
537.0,-3.9978112169999998,-3.0198942835,8.634421303,9.98276186
538.0,-3.9972341284999997,-3.0214490845,8.633610499500001,9.982299253
539.0,-4.000691887,-3.015640049,8.636319482,9.984269431000001
540.0,-3.9941722244999998,-3.0276825855,8.633806040500001,9.983133485
541.0,-4.00109251,-3.020852917,8.63483144,9.9847187335
542.0,-4.0007614235,-3.0200327655,8.636703424,9.98595705
543.0,-3.9912515495000003,-3.0299396575,8.640329230999999,9.988289313500001
544.0,-3.9995281725000003,-3.0237765115000004,8.640010944,9.9894566255
545.0,-4.003868255,-3.022937111,8.639710486999999,9.990681323499999
546.0,-3.996499653,-3.0291563085,8.6404878625,9.990288182499999
547.0,-4.0062884185000005,-3.022982114,8.643904047,9.995291544
548.0,-3.995727023,-3.0250260815,8.651466858,9.9982289135
549.0,-3.9933087865,-3.0293736155,8.655364454499999,10.001948259999999
550.0,-3.9993087835,-3.0219260145,8.6556113825,10.002305565
551.0,-3.988174593,-3.0345414435,8.660797059,10.00616968
552.0,-3.991919464,-3.0228471614999997,8.663835367499999,10.00675162
553.0,-3.994958457,-3.018811457,8.663010692,10.00603239
554.0,-3.9853355875,-3.024539393,8.66601146,10.00652269
555.0,-3.9938145255,-3.0145240275000003,8.6681642475,10.00874524
556.0,-3.9929083545,-3.0173283905000003,8.667258048,10.00844552
557.0,-3.988615965,-3.0204141395,8.667205613,10.007618315
558.0,-3.9983358425,-3.0131838479999997,8.664386945,10.006876035
559.0,-3.9896461385,-3.023547584,8.665278799500001,10.00730969
560.0,-3.9933471320000002,-3.017419006,8.665450504999999,10.00708165
561.0,-4.00222551,-3.0085547029999997,8.6638664665,10.006589609999999
562.0,-3.9860262234999997,-3.0014799334999998,8.674068671499999,10.006838805000001
563.0,-3.9224034365,-3.1174509135,8.6692278055,10.013351475
564.0,-3.963249837,-3.2141597165,8.5958667805,9.998011188500001
565.0,-3.8657438885,-3.0140280400000004,8.7261353585,10.008719549999999
566.0,-3.8544883375,-3.0050378474999997,8.731820365,10.006602165
567.0,-3.8660539419999997,-3.0197559735,8.720741247,10.0058309
568.0,-3.8756355090000003,-3.0145955675,8.7175171805,10.005171215
569.0,-3.8655388549999996,-3.016727456,8.720583857,10.004587685
570.0,-3.8594979465000003,-3.0195544610000002,8.722652848500001,10.00490614
571.0,-3.8691341225,-3.0110759035,8.720801174,10.004456565
572.0,-3.864848849,-3.02237,8.719715422,10.005259705
573.0,-3.873990093,-3.0127450710000003,8.720316771,10.006416945
574.0,-3.8782157115,-3.011042423,8.718843067,10.006256005000001
575.0,-3.8746577980000003,-3.0195413540000002,8.715785928999999,10.004775734999999
576.0,-3.881730702,-3.010236408,8.7166539455,10.00547051
577.0,-3.8801949799999997,-3.0137084735000004,8.715237458,10.00468554
578.0,-3.8786048885,-3.012836756,8.714617236,10.003267285
579.0,-3.885736932,-3.0076800515,8.715370989,10.00513802
580.0,-3.8792893815,-3.0169307035,8.715418655499999,10.005462569999999
581.0,-3.885560467,-3.0069074215000002,8.7158574585,10.005260985
582.0,-3.888407752,-3.00768959,8.716491781,10.00715471
583.0,-3.8826511420000003,-2.9863182615,8.723793626500001,10.004896245
584.0,-3.9197135635,-2.9800036805000003,8.7187190495,10.01303049
585.0,-3.8449184985000002,-3.0276490445,8.726725672,10.005300435
586.0,-3.8572688045000003,-2.9890297915,8.7372663895,10.007635055
587.0,-3.876617989,-2.9986183425,8.726073356,10.00821481
588.0,-3.8704368805,-2.955608613,8.763212165999999,10.02558345
589.0,-4.5088684085,-3.4778355039999997,8.1859663585,9.978322521
590.0,-4.843660826500001,-3.982301434,7.750207383499999,9.969688083000001
591.0,-6.461936071,-4.401382121,6.6873010485,10.3174741905
592.0,-6.522430218,-1.3913316550000001,6.9658487565,9.681730151499998
593.0,-2.127987461,-1.600552448,9.592297587000001,9.959481472
594.0,-4.5773225645,-1.2517430175,8.815693875000001,10.0577114365
595.0,-2.3797800324,1.8162177145,9.421582068,9.997235723500001
596.0,-0.90442028005,3.919646572,8.8413630575,9.77961175
597.0,-0.8879722106500001,5.3250861369999996,8.392368477,9.9980018195
598.0,-0.027404548099999995,6.0369796115,7.7866879430000004,9.8851436785
599.0,-0.60902864215,2.09331444705,8.9919967875,9.706250834
600.0,-5.7465821695,-4.576050751,6.8849816505,10.187185495000001
601.0,-5.368887621,-4.065058788,7.295347189,9.937806714
602.0,-5.3157096025,-2.739190906,8.046349095,10.031904234999999
603.0,-4.6794959545,-2.5772910935000004,8.4421467835,9.991126411500002
604.0,-4.844892742,-2.5699152585,8.355637573,9.9947589605
605.0,-4.8804878145,-2.5833734474999996,8.339521879,10.002036095000001
606.0,-4.8733961005,-2.607533811,8.338501024,10.003993305
607.0,-4.86804641,-2.6100376095,8.342176164000001,10.005108365
608.0,-4.8309045985,-2.6231744855,8.358708347,10.004391247000001
609.0,-4.849713138,-2.619652581,8.350455794999998,10.005632595
610.0,-4.828841862999999,-2.6256115085,8.357559383,10.003050009999999
611.0,-4.852106975,-2.611468602,8.350385949500001,10.004585944999999
612.0,-4.8561946465,-2.6096703960000003,8.347851795,10.003981385
613.0,-4.8592466835,-2.604793621,8.348763692,10.00495359
614.0,-4.857630212,-2.6100090209999998,8.3474797975,10.004455929999999
615.0,-4.8609305825,-2.6077197465,8.3485719695,10.006374165
616.0,-4.861564902,-2.603055341,8.3465688335,10.003797395
617.0,-4.8531136645,-2.6061363315,8.352153761,10.005157085
618.0,-4.8600577965,-2.599244653,8.351648194,10.00631117
619.0,-4.85975256,-2.5980857115,8.3506895685,10.005062035
620.0,-4.859175472,-2.59994575,8.3507086725,10.005280855
621.0,-4.861011661,-2.5986198655,8.351476510000001,10.00646899
622.0,-4.857677905,-2.601948863,8.351047267,10.005358035
623.0,-4.859013315,-2.5994640469999997,8.352139431000001,10.006270915
624.0,-4.861059354,-2.5986389555000002,8.350875579,10.00599548
625.0,-4.859008546,-2.603584742,8.349854944499999,10.005433295
626.0,-4.861674597,-2.5988201885,8.350365255,10.00591564
627.0,-4.859948102500001,-2.5990205035000002,8.3503128105,10.005085575
628.0,-4.860653962000001,-2.6083349835,8.3471172965,10.0051865
629.0,-4.858564999,-2.60744312,8.3498740105,10.00624756
630.0,-4.84885943,-2.603088734,8.3566512375,10.00605477
631.0,-4.850771928,-2.5971890815,8.3579914425,10.006567969999999
632.0,-4.8498323715,-2.600603917,8.3587068165,10.007597235
633.0,-4.8483157275,-2.6008042275,8.3587640515,10.00696203
634.0,-4.851163012000001,-2.5967216895,8.3592934475,10.00772384
635.0,-4.8469517015,-2.601262082,8.359088358000001,10.006690975
636.0,-4.848124954,-2.596511837,8.360261628,10.0070058
637.0,-4.849403132,-2.5969982985,8.3589691415,10.00667175
638.0,-4.847586021,-2.601452856,8.3579580375,10.00610394
639.0,-4.850538231,-2.5962876785,8.3567132455,10.00515304
640.0,-4.8464795380000005,-2.601128537,8.3589118945,10.00628098
641.0,-4.849736985,-2.598109551,8.356050305,10.00468384
642.0,-4.832844048,-2.653419383,8.3503221785,10.006260350000002
643.0,-4.8429740875,-2.621717705,8.3564843085,10.007928755
644.0,-4.8405941955,-2.617973787,8.357814952,10.006908280000001
645.0,-4.840460654499999,-2.6168243804999998,8.35836819,10.00700499
646.0,-4.839783411,-2.6207161474999996,8.356918321999999,10.00648502
647.0,-4.840198342,-2.618126406,8.357648042000001,10.00661734
648.0,-4.842354075499999,-2.6177543985,8.3563460065,10.00647552
649.0,-4.841753141,-2.6216557035,8.356307850499999,10.00717444
650.0,-5.0106730375,-2.5490426665,8.267245236,9.997945988000001
651.0,-4.8314609235,-2.5164681355000003,8.4013301235,10.013600865
652.0,-4.6805689489999995,-2.4052188835,8.513223308,10.00841463
653.0,-4.656774727,-2.3853403560000004,8.5341510865,10.010353185
654.0,-4.6583534085,-2.3756681725,8.5350525045,10.009555005
655.0,-4.6598271355000005,-2.3679895645,8.5377662285,10.010735069999999
656.0,-4.6665137945,-2.3652710355,8.533306931,10.009404905
657.0,-4.6667093610000006,-2.362280686,8.534837871,10.010095395
658.0,-4.670744295,-2.359967566,8.5344324835,10.01108571
659.0,-4.663633123,-2.3636828675,8.5364546415,10.010371585
660.0,-4.664572748,-2.355756253,8.537704236,10.01000623
661.0,-4.666647414,-2.353900989,8.538600882,10.01130137
662.0,-4.660732643,-2.361051649,8.538522881,10.010163405
663.0,-4.662617255,-2.353047279,8.540422767999999,10.010776895
664.0,-4.662717414499999,-2.3518644845,8.5406469155,10.010737265
665.0,-4.697669470999999,-2.337972284,8.526909263499999,10.012269695
666.0,-4.8258412835,-2.3504565785000002,8.443483271000002,10.00592102
667.0,-4.847023206499999,-2.5399284480000004,8.378847480000001,10.007825010000001
668.0,-4.774515247,-2.4942335040000003,8.4355930465,10.008819025
669.0,-4.7849219065,-2.497242946,8.4292403295,10.009185800000001
670.0,-4.778564401000001,-2.518552274,8.426807985,10.009441965
671.0,-4.761499755499999,-2.5469202555,8.4241896015,10.00632793
672.0,-4.7494095035,-2.486912607,8.4530583055,10.009789265
673.0,-4.752647908,-2.5003811595,8.444945689,10.007831685
674.0,-4.752581129,-2.479744305,8.452772138499999,10.00928324
675.0,-4.766011547,-2.4700387360000002,8.4467007995,10.00813274
676.0,-4.7734326110000005,-2.4684600905,8.443634115,10.008691815
677.0,-4.7753117235,-2.4663234345,8.442150853000001,10.007810325000001
678.0,-4.776256049000001,-2.4714743015,8.441373479,10.0088761
679.0,-4.7777297695000005,-2.4671103724999996,8.4417740795,10.0088404
680.0,-4.7768283675,-2.466819444,8.442098414,10.008612085
681.0,-4.774739405,-2.4720609285,8.440839304,10.007846619999999
682.0,-4.774882485,-2.4668480600000002,8.442966430999999,10.00842267
683.0,-4.776566055,-2.4651167965000003,8.441898101,10.00789827
684.0,-4.7753784945,-2.471612612,8.4409537695,10.008137385
685.0,-4.7764945155,-2.4660706605,8.4429664175,10.00900047
686.0,-4.7759555825,-2.4649546395,8.442413182,10.008001759999999
687.0,-4.773537536,-2.4712739900000003,8.4412733135,10.007444804999999
688.0,-4.774853868999999,-2.465050026,8.4429664385,10.007966045
689.0,-4.776594671,-2.4657368085,8.4416691485,10.00787171
690.0,-4.773699692999999,-2.46916595,8.441030088,10.006797370000001
691.0,-4.7756360375,-2.464534939,8.4413114565,10.006816345
692.0,-4.775345109,-2.4674251480000002,8.439475278,10.005841105
693.0,-4.774887253999999,-2.470839982,8.4399712815,10.006883705
694.0,-4.7748538685,-2.4646732495,8.4417025465,10.00680743
695.0,-4.7758983505,-2.464902177,8.441607156,10.007281365
696.0,-4.7725216705,-2.4697764235,8.44265642,10.00775852
697.0,-4.7740096990000005,-2.4655221885,8.4427088875,10.00746246
698.0,-4.7739000045,-2.469423494,8.4421079395,10.00786548
699.0,-4.774319705,-2.4656366524999997,8.442055496999998,10.00708758
700.0,-4.776847445,-2.4624459759999997,8.443390886,10.008634435000001
701.0,-4.774338781999999,-2.4682502404999997,8.442360722,10.007998839999999
702.0,-4.775788656,-2.4648210985,8.442966421,10.00835569
703.0,-4.7753641865,-2.4637050775000002,8.440224063999999,10.00556488
704.0,-4.7750541805,-2.464372782,8.440514982,10.005826965
705.0,-4.7736424615,-2.473038639,8.439475287499999,10.006415454999999
706.0,-4.774977871,-2.464058007,8.4417359385,10.006743140000001
707.0,-4.774992179,-2.4659418885,8.440777303499999,10.006405185
708.0,-4.773279992499999,-2.4697764235,8.439365590000001,10.00534394
709.0,-4.776666211,-2.4636096910000003,8.439985586999999,10.00596174
710.0,-4.7744270150000006,-2.4669426835,8.439734125000001,10.005503935
711.0,-4.774710789,-2.467038833,8.4397137615,10.005644884999999
712.0,-4.7782925495,-2.460647942,8.441020530500001,10.006883055
713.0,-4.739513154,-2.455888159,8.46351266,10.006282235
714.0,-4.7455272495,-2.4743835875,8.4533349265,10.00507725
715.0,-4.762978251,-2.4646017095,8.447444825,10.00597717
716.0,-4.7242465475,-2.4381748975,8.474525035500001,10.004047204999999
717.0,-4.7350252555,-2.4330764945,8.473318386999999,10.006878845
718.0,-4.782408474,-2.482892067,8.431004965,10.005928910000002
719.0,-4.801919767999999,-2.4848522485,8.417731952,10.004556185
720.0,-4.8006738685000006,-2.4854449415,8.4182879085,10.004573885
721.0,-4.798314161,-2.492368699,8.418690585,10.00550307
722.0,-4.80303102,-2.485028713,8.4191484145,10.00632474
723.0,-4.809607894,-2.4868649165,8.409633615499999,10.001943822000001
724.0,-4.9231845355,-2.553692722,8.317575927,9.997568101
725.0,-5.88274436,-2.563860946,7.777611898,10.09502759
726.0,-6.6311231535,-1.1813239195,7.224117321,9.9716762855
727.0,-0.37958093224999995,-0.22127395156500002,10.046375995,10.10290775
728.0,1.8062630235000001,1.2386893739999998,9.857825019,10.098802615
729.0,0.22110118913000001,3.5995057404999997,9.143723389,9.8421405365
730.0,0.157254219825,4.027691063,9.1805234885,10.02695623
731.0,0.24042172779999998,3.832382473,9.28507666,10.047832055
732.0,0.20858170574999998,4.8638732225000005,8.5972873555,9.9064503285
733.0,-0.31645909265000005,3.9232237984999996,9.126906735,9.983258675
734.0,-0.45579495535000003,4.8298679005,8.808263290500001,10.05618812
735.0,1.1631384768,5.4393687365000005,8.4345198085,10.142211096
736.0,1.6603454897999999,4.756496617,8.342424122,9.7822797265
737.0,5.8851649999996924e-05,4.7326818584999994,8.8150153605,10.019065320500001
738.0,0.19508928105,3.1429095885000002,9.3528869475,9.9660191265
739.0,1.145873518,2.772070639,9.5587692125,10.020749175
740.0,0.71210330925,3.0728052625,9.5082525235,10.02065545
741.0,-0.429730585725,3.403243249,9.298631088,9.916853896
742.0,-2.751037913,0.78459706665,9.3856522075,10.0343920185
743.0,-6.9031845805,-4.106117917,5.714902239,9.9538505955
744.0,-5.878146709499999,-3.5108869385,7.2640031865,10.0068242385
745.0,-4.9506562945,-2.437348484,8.3764568415,10.03092273
746.0,-4.9237724400000005,-2.4854897155,8.345297009,10.003269872
747.0,-4.8944255299999995,-2.4438933075,8.380926964,10.00854238
748.0,-4.8645552665,-2.4490107975,8.396212762000001,10.00790396
749.0,-4.8691338155,-2.4630087565,8.3880524595,10.00671292
750.0,-4.858002222,-2.4511951485,8.4034954735,10.011395175
751.0,-4.8487878900000005,-2.4515528460000002,8.405727563,10.0088521
752.0,-4.850371304499999,-2.457209261,8.400996404,10.007033589999999
753.0,-4.8480821075,-2.4557136255,8.4049252725,10.00885609
754.0,-4.846088454,-2.458067739,8.404420788,10.00804516
755.0,-4.8454255185,-2.4605096315,8.404969228999999,10.00878483
756.0,-4.846202918,-2.456355553,8.4046592255,10.007880005
757.0,-4.843708563,-2.4615016505,8.4051600055,10.008357745
758.0,-4.8445527325,-2.4584397465,8.4069055695,10.009479475
759.0,-4.8413763645,-2.4586925205,8.4076114325,10.00859756
760.0,-4.842616388,-2.4618259645,8.4060852575,10.008686860000001
761.0,-4.8409876835,-2.4583500255,8.4080484045,10.00869265
762.0,-4.8389344715,-2.4579103515,8.409347483000001,10.008683115
763.0,-4.839463866499999,-2.4599754674999996,8.408250524,10.008524869999999
764.0,-4.838758007,-2.4586257495,8.409843479,10.009190245
765.0,-4.83634473,-2.4583538985,8.4114412045,10.009301090000001
766.0,-4.836902740499999,-2.457619423,8.411169356,10.009160484999999
767.0,-4.836812124,-2.457161568,8.4111836765,10.00901621
768.0,-4.8357342575,-2.4607480975,8.409552543499998,10.008006125
769.0,-4.8371459765,-2.4567514065,8.409614549499999,10.00775827
770.0,-4.837217516,-2.4603999375,8.4102870365,10.009254625
771.0,-4.8354147130000005,-2.461282262,8.409938873,10.008308419999999
772.0,-4.8344465405,-2.455902467,8.4121136645,10.008346205
773.0,-4.8305786205,-2.465073872,8.411932452999999,10.008580949999999
774.0,-4.830292461499999,-2.4595748449999997,8.4130484575,10.008027850000001
775.0,-4.8277837985000005,-2.4615159584999997,8.414798803,10.0087674
776.0,-4.825945301,-2.4596271355,8.4174656365,10.009657529999998
777.0,-4.8242735775,-2.4606527115,8.416878229,10.00861033
778.0,-4.824364195,-2.4634236874999997,8.416201006,10.008765575
779.0,-4.8134662955,-2.4718749245,8.419086428,10.008046165
780.0,-4.7727696735,-2.472013235,8.443223957499999,10.008929045
781.0,-4.790630724,-2.467463315,8.436289269500001,10.010604915
782.0,-4.7256582495,-2.4767157844999996,8.4631692635,10.004560175
783.0,-4.719162502,-2.4875850699999997,8.4665936265,10.00708734
784.0,-4.7310619554999995,-2.4889443265,8.45950165,10.007050905
785.0,-4.7672276485000005,-2.5818937505,8.4076542455,10.0044269065
786.0,-4.754598467499999,-2.6289145410000003,8.401625825,10.005326915000001
787.0,-4.732755068,-2.5578801165,8.438154167499999,10.007206445
788.0,-4.7246853735,-2.5618148175,8.440367146,10.006265724999999
789.0,-4.723803051999999,-2.556578091,8.4425562485,10.006356145
790.0,-4.726001709,-2.5609181845,8.440805929,10.007028335000001
791.0,-4.726726646,-2.5595493830000002,8.4395754445,10.005982205
792.0,-4.7271749624999995,-2.5583379600000002,8.4409108505,10.007010185
793.0,-4.7259206305,-2.5627352995,8.439136658999999,10.00604662
794.0,-4.7303656385,-2.5568833205,8.438879113999999,10.006432665
795.0,-4.7287536075,-2.561151879,8.438302034500001,10.00627604
796.0,-4.727523123,-2.5598307709999997,8.439370343499998,10.006257475
797.0,-4.730627951000001,-2.5574794890000003,8.439189132,10.006970445
798.0,-4.72929731,-2.562492062,8.437109708000001,10.005870765000001
799.0,-4.730227328,-2.5566782354999997,8.4396565275,10.0069704
800.0,-4.728953919,-2.560632031,8.438230495500001,10.006177565000002
801.0,-4.7293497725,-2.5576511809999998,8.439952210000001,10.007053800000001
802.0,-4.7261543275,-2.5484463865,8.4449838335,10.007443134999999
803.0,-4.746733532,-2.5305631785,8.438973404999999,10.00770949
804.0,-4.733189051,-2.5084890055,8.4515082825,10.006177614999999
805.0,-4.737056996,-2.5107305865000002,8.4499582505,10.00726244
806.0,-4.7508395530000005,-2.527146668,8.436951770499999,10.006953055
807.0,-4.7560532035000005,-2.5332942469999997,8.4318300625,10.00666691
808.0,-4.754689178,-2.5399665275,8.431133737500002,10.00712428
809.0,-4.7566302915000005,-2.5339047205,8.431748967499999,10.007027579999999
810.0,-4.755824276,-2.539723292,8.4307188095,10.00725172
811.0,-4.757315147,-2.5380049825,8.431049285,10.007802565
812.0,-4.7568067565,-2.5356979845,8.4311384925,10.007052555000001
813.0,-4.75580043,-2.540896546,8.4299128145,10.006859339999998
814.0,-4.7596254255,-2.535826756,8.4300415545,10.007500400000001
815.0,-4.7574506145,-2.5411445555,8.429526479,10.007381355
816.0,-4.756844911,-2.537243245,8.4313149775,10.007609604999999
817.0,-4.7568544495000005,-2.5401573004999998,8.4313960435,10.00842273
818.0,-4.757259842,-2.5405245395,8.43223067,10.009410715000001
819.0,-4.75987343,-2.5391128355,8.428815837999998,10.007418659999999
820.0,-4.7663738895000005,-2.5437200605,8.421013209,10.00511811
821.0,-4.7576653985,-2.538390186,8.4108432825,9.991052408
822.0,-4.763698339499999,-2.537710692,8.400133093,9.9847407305
823.0,-4.762329574000001,-2.5412972055000003,8.391405248,9.9776582555
824.0,-4.776971403499999,-2.5433623284999998,8.38455647,9.9794337485
825.0,-4.7262876795,-2.5591536145,8.3885102325,9.962663277499999
826.0,-5.2896357035,-2.4804978804999998,8.0906942885,9.9820679195
827.0,-5.965201228,-2.37662196,7.6672020255,10.0198863695
828.0,-1.5369132914499999,-0.176510621925,9.6271641295,9.837536892500001
829.0,1.550574686,-0.14777279749999997,9.940572826,10.0798231845
830.0,2.1113425140000004,0.6595882611499999,9.729305993,9.977605157
831.0,1.531659534,0.6605516623500001,9.847179897,9.988861084
832.0,1.4995858155,0.25263120306,9.8775128045,9.998986116
833.0,1.4688236715,-0.43962693934999997,9.906605711000001,10.024582375
834.0,1.5056905505,-0.40330852315,9.878814862999999,10.001049587
835.0,1.4318756955,-0.199162287965,9.914913907999999,10.021503475
836.0,1.489193455,-0.24573952665,9.896776165,10.0113243875
837.0,1.421077942,-0.0619678543,9.9095865225,10.0128012075
838.0,1.4604534965,-0.0167546430695,9.913950519,10.020981785
839.0,1.490347636,0.064657753595,9.9036058545,10.015350954999999
840.0,1.521434103,0.016063089957,9.905017587,10.021199150000001
841.0,1.4093644735000002,0.2084290893875,9.905170117499999,10.0099237025
842.0,1.4898325425,-0.091275362456,9.903958775,10.016241046000001
843.0,1.184643374,0.2377652137,9.948723628,10.0225205405
844.0,1.264996967,-0.0019506544294499999,9.9688597675,10.048805285
845.0,1.4271635985,0.380234522,9.890132467,10.0017275275
846.0,2.090204846,0.158355934,9.8008840475,10.023585409999999
847.0,2.082831479,0.039666485205000004,9.799396013500001,10.018395845
848.0,2.0791590875,0.048341889335,9.791974931999999,10.01040236
849.0,1.8052376190000001,0.304655011815,9.822584487,10.0000221265
850.0,-2.2026369475,3.394982774,8.921959231999999,9.812021546499999
851.0,1.2512613163,4.1140349915,8.857687818,9.914106996
852.0,-0.20341175665,1.9086890699999999,9.5507137915,9.8034306375
853.0,-5.2761719135,-3.3281120565,7.7028670340000005,10.139548319500001
854.0,-5.6417789025000005,-3.3759627055,7.46433873,10.0392418355
855.0,-3.408627856,-1.633045868,9.302222331500001,10.040899795000001
856.0,-3.340936772,-1.6921521255,9.298602404499999,10.024474869999999
857.0,-3.3661856495,-1.761626878,9.280521767,10.028091855
858.0,-3.3758970145,-1.768327204,9.2770629975,10.02933616
859.0,-3.363748467,-1.780079421,9.279319911,10.029425475
860.0,-3.3567423935000003,-1.7826787080000002,9.283984291,10.031851790000001
861.0,-3.3599139925,-1.7856404725,9.2807125305,10.030415145
862.0,-3.3484818955,-1.8034205349999999,9.2810654695,10.030098115000001
863.0,-3.3358622725,-1.7992616849999998,9.2881574385,10.031710284999999
864.0,-3.3396443355,-1.7955845275,9.288066820000001,10.032225485
865.0,-3.323371362,-1.7950932800000001,9.293885426500001,10.03212357
866.0,-3.333506207,-1.789365304,9.2917487785,10.032483
867.0,-3.336978305,-1.7895179410000002,9.289850580500001,10.031906379999999
868.0,-3.338580805,-1.7913493694999998,9.289306861,10.03226186
869.0,-3.3348702770000003,-1.7897421050000002,9.291934752,10.033175154999999
870.0,-3.322012129,-1.7920456775,9.294996674,10.03215636
871.0,-3.3221504215,-1.794487573,9.2952351745,10.032862125
872.0,-3.3225688755,-1.7953213885000001,9.292934395,10.031015825
873.0,-3.3299339789999998,-1.7947594325,9.2903036615,10.03092049
874.0,-3.3267849185,-1.797186248,9.292803112000001,10.0326257
875.0,-3.31834451,-1.7998626235000001,9.293666004,10.031109709999999
876.0,-3.3257036125,-1.7941155869999998,9.292621544,10.03154878
877.0,-3.3269817890000004,-1.7910679805,9.293513414,10.03225652
878.0,-3.321035515,-1.795047963,9.293103317,10.0306153
879.0,-3.3262806545,-1.8026621855,9.294681933,10.035194085
880.0,-3.2703650905,-1.8348217625,9.2993654405,10.027033965000001
881.0,-3.2833922455,-1.8158810535,9.299488679500001,10.027892035
882.0,-3.294087668,-1.817494798,9.295349678000001,10.02786184
883.0,-3.2762322924999996,-1.7831376945,9.307268965999999,10.026897595
884.0,-3.257047547,-1.785070769,9.315456525,10.028591205
885.0,-3.2662945475000003,-1.80422046,9.3075765405,10.027709545
886.0,-3.2788544015000003,-1.8126825604999999,9.301778742,10.027950645
887.0,-3.266716478,-1.8099258925,9.3070631405,10.028420579999999
888.0,-3.235687247,-1.8076222995000002,9.317326893499999,10.027468939999999
889.0,-3.2489841085,-1.8011598775,9.315352319999999,10.028755325
890.0,-3.1116694569999996,-1.7192451119999999,9.361603827,10.01493807
891.0,-3.1143929885,-1.7464664705,9.3762395655,10.033217180000001
892.0,-3.1656020514999996,-1.821977962,9.339790483,10.028610825000001
893.0,-3.1280484245,-1.7924701600000001,9.353650231500001,10.024392644999999
894.0,-3.103734383,-1.8019372599999999,9.359850329,10.024326975000001
895.0,-3.1221250565,-1.7923423930000002,9.3580109675,10.02659374
896.0,-3.1190630235,-1.7906530484999998,9.36022237,10.02740081
897.0,-3.1129592644999997,-1.786650304,9.3653323445,10.029560905
898.0,-3.1151140249999996,-1.783675518,9.365206293,10.029582535
899.0,-3.1100299285,-1.7885354675,9.3650012035,10.028678965000001
900.0,-3.108611494,-1.786488203,9.3659696475,10.028778465
901.0,-3.111274721,-1.7853734005000002,9.364891504,10.02839885
902.0,-3.1103167165,-1.7906114025,9.3662303455,10.030286495
903.0,-3.111718268,-1.7863844995,9.3651156805,10.028925959999999
904.0,-3.1137881535,-1.787409907,9.363785045,10.028509345
905.0,-3.1139668325,-1.7901356935,9.358580502999999,10.02419165
906.0,-3.115238027,-1.787638834,9.354728091,10.020544220000001
907.0,-3.113616458,-1.7921840075,9.349186137,10.015679299999999
908.0,-3.113072755,-1.7895036415,9.346729954499999,10.012737345
909.0,-3.110735788,-1.787924996,9.348222731,10.01312263
910.0,-3.1104877699999998,-1.792694321,9.351389579,10.016854734999999
911.0,-3.112891521,-1.787929765,9.352672519999999,10.017947410000001
912.0,-3.1121023125000002,-1.789612435,9.356055251499999,10.021160859999998
913.0,-3.106748635,-1.7945209640000002,9.3589298905,10.023061795
914.0,-3.1073066459999996,-1.7931617155,9.359564179,10.023583649999999
915.0,-3.109753155,-1.7924004029999998,9.3605399275,10.02511706
916.0,-3.109994807,-1.8007956520000001,9.3579680515,10.024295635000001
917.0,-3.10173941,-1.7787632015,9.3638188065,10.023291205
918.0,-2.913900861,-1.7320856944999998,9.4375759745,10.027937885
919.0,-2.941787113,-1.7458833550000001,9.417420778499999,10.019488015
920.0,-3.1408274895,-1.7337293360000001,9.3575425055,10.0218781125
921.0,-3.0097037825,-1.62560708,9.423868747,10.025526055
922.0,-3.002157177,-1.5916242755,9.434771617500001,10.02801889
923.0,-3.0081426755000003,-1.5825721035,9.436898722,10.030379700000001
924.0,-3.0115552015000002,-1.582872933,9.437579468500001,10.032091705
925.0,-3.0079757495,-1.5747933404999999,9.440885901000001,10.032857490000001
926.0,-3.0133078505,-1.569833246,9.4414200515,10.034182345
927.0,-3.0180676335000003,-1.5735103925,9.438029049499999,10.03299934
928.0,-3.018697699,-1.5655800025,9.4400786165,10.033875720000001
929.0,-3.0216213315,-1.566109607,9.439087627,10.033906179999999
930.0,-3.024166241,-1.56578497,9.437835115999999,10.033444880000001
931.0,-3.024230894,-1.5612393665000002,9.437943189999999,10.03285665
932.0,-3.024215289,-1.568287985,9.4366316605,10.032718065000001
933.0,-3.0231231139999997,-1.558825651,9.4391403235,10.03327388
934.0,-3.0244967550000004,-1.5568238895,9.440099863,10.034279605
935.0,-3.024355507,-1.5634855619999999,9.438019835,10.033317395000001
936.0,-3.0259608605,-1.554161251,9.440375575000001,10.034567795000001
937.0,-3.0244116324999997,-1.5619555465000001,9.4405648235,10.03549017
938.0,-3.0242921899999997,-1.5542567109999998,9.4402492045,10.033960885
939.0,-3.0256374205,-1.5530286645,9.4404344785,10.034350270000001
940.0,-3.0231039610000003,-1.5603439104999999,9.439036745,10.033407245
941.0,-3.0279489265,-1.5551642715,9.437804166,10.032904145
942.0,-3.0262422505,-1.5561166745000001,9.4377667705,10.032501920000001
943.0,-3.023533276,-1.5578527055,9.4387301525,10.03286194
944.0,-3.0258349315,-1.5539324190000001,9.438615132999999,10.03283802
945.0,-3.025431466,-1.5585394854999999,9.4383390815,10.03317179
946.0,-3.0249306870000003,-1.55168597,9.439569558999999,10.0331157
947.0,-3.024693728,-1.552544641,9.4391226045,10.032756580000001
948.0,-3.024628083,-1.554831224,9.439690268500001,10.033626125000001
949.0,-3.025691032,-1.551246845,9.439104242500001,10.032839200000002
950.0,-3.0281690595,-1.555067421,9.4391832465,10.034254255
951.0,-3.0238623589999998,-1.5523345945,9.439893874500001,10.033199360000001
952.0,-3.0245421400000003,-1.548829106,9.4402459655,10.03319347
953.0,-3.0230113210000003,-1.5596900565,9.4389702795,10.033214755
954.0,-3.0219469425,-1.5482345,9.4405241565,10.03258155
955.0,-3.0239820115000002,-1.5511171215,9.4399016685,10.033054284999999
956.0,-3.0228417475000002,-1.565941467,9.437828782,10.033064065
957.0,-3.1696595815000004,-1.6188071615,9.3674537715,10.022153375
958.0,-3.4853519659999996,-1.9324832445,9.221263078500002,10.0456812955
959.0,-3.3262806285,-1.8963746700000002,9.267725882,10.027623485
960.0,-3.2393024385,-1.8850999805,9.3075830965,10.034165345
961.0,-3.21864113,-1.876260877,9.315206562,10.03261468
962.0,-3.2172420425,-1.8718730795,9.315690393499999,10.03178797
963.0,-3.2179501715,-1.871955716,9.316139293500001,10.03244573
964.0,-3.2192092585,-1.8729954325,9.3161822125,10.033086175000001
965.0,-3.2222186765,-1.871450144,9.315361894999999,10.032994875
966.0,-3.221529567,-1.8756404345000002,9.3146577115,10.032903625
967.0,-3.221474663,-1.8706488970000001,9.3156671425,10.03289007
968.0,-3.2232679280000003,-1.87315756,9.3136782895,10.03208791
969.0,-3.2216845125,-1.8726949359999998,9.315109107000001,10.03282125
970.0,-3.2229189849999997,-1.8703461975,9.3151231315,10.032792324999999
971.0,-3.2205827995,-1.875957155,9.3126719195,10.030813885
972.0,-3.2221232905,-1.870405662,9.315376198,10.032782845
973.0,-3.2218895935000003,-1.8766487065000002,9.313034411,10.031700375
974.0,-3.222013596,-1.8751845230000002,9.3137641255,10.032143014999999
975.0,-3.2230753235,-1.8731269995,9.3138118735,10.03214398
976.0,-3.2227289944999997,-1.8784228925,9.312276046000001,10.031597094999999
977.0,-3.2228035674999997,-1.8737008044999999,9.314824549,10.03310413
978.0,-3.2234624585000002,-1.875930425,9.312432306,10.03151149
979.0,-3.2230886585,-1.8777723575,9.312333646999999,10.031644515
980.0,-3.2227678355,-1.8760724755,9.3121325075,10.03103655
981.0,-3.222752841,-1.8792479869999998,9.3118372855,10.0313523
982.0,-3.2232917739999998,-1.8763482375,9.312609907999999,10.03169959
983.0,-3.2232165905,-1.875352345,9.3135502465,10.03236213
984.0,-3.2228562585000002,-1.88052998,9.310709755,10.030579415
985.0,-3.2225620680000002,-1.8757568414999999,9.312013738000001,10.030801109999999
986.0,-3.2217369755,-1.8800969285,9.3119231275,10.03126554
987.0,-3.222442835,-1.877511953,9.3122474225,10.03130809
988.0,-3.2223331405,-1.876639165,9.313501812,10.032274189999999
989.0,-3.223505573,-1.882290765,9.3113375305,10.03170048
990.0,-3.2213669905,-1.876745159,9.311485274999999,10.030111565
991.0,-3.2229483830000003,-1.879414913,9.312266521,10.03184523
992.0,-3.2219182095,-1.8794721465,9.312285619,10.031542425
993.0,-3.2208212654999997,-1.8771065585,9.3119994465,10.030481375
994.0,-3.213695899,-1.878055665,9.3100487735,10.026565484999999
995.0,-3.2075524605,-1.8726803865,9.3115442545,10.024978105
996.0,-3.296676109,-1.907967739,9.274475242000001,10.026206855
997.0,-3.2377953164999997,-1.9200925175,9.286874587,10.02095641
998.0,-3.199383166,-1.875089162,9.3165208445,10.027451645
999.0,-3.1621967460000002,-1.8456528895,9.336323031500001,10.028720465
1000.0,-3.252664026,-1.8653971275,9.298625699999999,10.026176095
1001.0,-3.2158151095000003,-1.862181342,9.3149433765,10.028845215
1002.0,-3.22794667,-1.862169056,9.311575042,10.02960668
1003.0,-3.2352008085,-1.869904908,9.307578358499999,10.029930945
1004.0,-3.2207640595,-1.876987354,9.3112650355,10.029889315
1005.0,-3.197044567,-1.8676353374999999,9.319185913,10.02801568
1006.0,-3.2801707925,-1.847212452,9.295335473,10.02883632
1007.0,-3.2266750775,-1.897365787,9.298241200500001,10.02341766
1008.0,-3.1581046535,-2.2303276370000003,9.2631948935,10.037718869999999
1009.0,-3.219733889,-2.2275900575,9.225006949,10.022608810000001
1010.0,-3.8778693305000003,-1.9089587634999998,9.052901780500001,10.03562657
1011.0,-6.3994865155,-1.7809283625,7.09393378,10.005596444
1012.0,-5.5539677233499996,1.81968352545,6.1454675420000004,9.809117858
1013.0,-0.16212271065,4.107030242,9.082189422,9.9938730205
1014.0,-1.8208953175,4.9264085975,8.543360607499999,10.037482544500001
1015.0,-1.4385909075,4.712862033,8.884872978,10.16134068
1016.0,-1.35455061075,2.8545227525,9.370700351,9.9205933855
1017.0,-0.8927463082,3.081156341,9.536839868000001,10.075023482999999
1018.0,-3.151837769,0.17593089650000016,8.93208929,9.88421511
1019.0,-7.6286611055,-3.766990206,5.143994812000001,9.9634442525
1020.0,-3.8726298124999996,-2.6254134615,8.7454808935,10.0497881325
1021.0,-2.5308007735,-2.2507034275,9.421776550499999,10.0138655845
1022.0,-2.331122593,-1.5989690405,9.646362557,10.052100835000001
1023.0,-2.356152026,-1.679704187,9.605398883,10.03178193
1024.0,-2.3312895185,-1.720911166,9.610401869499999,10.037747875
1025.0,-2.3499547659999998,-1.7117791235,9.604398263499998,10.034788205
1026.0,-2.3307076575,-1.726949128,9.602875892,10.03144073
1027.0,-2.345172923,-1.721767008,9.604539770999999,10.035513224999999
1028.0,-2.3325605955000004,-1.7326310965,9.6061069985,10.0359502
1029.0,-2.32656285,-1.7272548054999999,9.611072994,10.038382205
1030.0,-2.335276684,-1.7310793604999999,9.604139766500001,10.034425365
1031.0,-2.338600134,-1.7335707075,9.603249463000001,10.0347853
1032.0,-2.333382621,-1.730616492,9.6040448085,10.03381354
1033.0,-2.3331082719999996,-1.729458273,9.601949761,10.031561425
1034.0,-2.347095576,-1.7419780605,9.6053393025,10.04021492
1035.0,-2.3329730975,-1.7313750645,9.602537284,10.032470445000001
1036.0,-2.354229964,-1.732667552,9.600176489999999,10.03537721
1037.0,-2.315405355,-1.742045804,9.6039082045,10.03150036
1038.0,-2.3383433695,-1.7347231289999998,9.600453137,10.03223964
1039.0,-2.3382540015,-1.7344889955,9.602616271999999,10.034249249999998
1040.0,-2.3393019825000003,-1.733349564,9.601974506000001,10.03368102
1041.0,-2.3295964225,-1.7398549255,9.60688212,10.037261225
1042.0,-2.3202008385,-1.736893173,9.609929705999999,10.037474185
1043.0,-2.3244737915,-1.729077807,9.605381052,10.0327586
1044.0,-2.3268200595,-1.730076867,9.606428187999999,10.034476945
1045.0,-2.3276380975,-1.733224843,9.605364792,10.034191700000001
1046.0,-2.3409411065,-1.722377843,9.603000439999999,10.03329828
1047.0,-2.318297857,-1.6811636035,9.619621015,10.0368308
1048.0,-2.240986906,-1.703464573,9.62886593,10.03190869
1049.0,-2.2318856924999997,-1.704979453,9.633038685,10.034131325
1050.0,-2.236141263,-1.7071472195,9.6301256085,10.032646795
1051.0,-2.2757651185,-1.6946129425,9.624641946499999,10.034197295
1052.0,-2.3998689685,-1.834811855,9.56876154,10.034319635
1053.0,-2.405619501,-1.8583106765,9.5634526845,10.03493836
1054.0,-2.3598884815,-1.828534431,9.57883426,10.033372295
1055.0,-2.3123278275,-1.827440501,9.588981598,10.031702809999999
1056.0,-2.344691173,-1.8334263075,9.581366723,10.0330264
1057.0,-2.3381144835,-1.838031507,9.5821341175,10.033068629999999
1058.0,-2.3377825420000002,-1.8350806894999998,9.5825830145,10.032878775
1059.0,-2.3433750795,-1.8351603755,9.5820673415,10.033705095
1060.0,-2.339748511,-1.8420838279999998,9.580711918999999,10.03283313
1061.0,-2.343626673,-1.8356536,9.581604744,10.033412219999999
1062.0,-2.33838597,-1.837406898,9.582862837499999,10.033712829999999
1063.0,-2.335956746,-1.8322625750000001,9.584563248999999,10.03382963
1064.0,-2.3080705715,-1.8241283424999999,9.592648628500001,10.033621714999999
1065.0,-2.302096386,-1.829771042,9.593780803000001,10.03435859
1066.0,-2.303896108,-1.8278215915,9.592842205,10.033519675
1067.0,-2.3055833615,-1.815782373,9.5961318995,10.03486658
1068.0,-2.2964213475,-1.8165470495,9.597694635,10.034397989999999
1069.0,-2.2919949605000003,-1.817718967,9.598306879999999,10.03418437
1070.0,-2.2779801165,-1.828161358,9.599502140999999,10.034033055
1071.0,-2.2786432055,-1.821827699,9.598941377,10.032494765
1072.0,-2.2801855855,-1.8259091129999998,9.599229121,10.033862275
1073.0,-2.277710842,-1.8246344825,9.5995612185,10.03338688
1074.0,-2.2778064369999997,-1.8248569435,9.598633395,10.032561094999998
1075.0,-2.276919133,-1.8247155615000001,9.5987647275,10.032459905
1076.0,-2.2724557545,-1.8241016735,9.600459299499999,10.032957365
1077.0,-2.2667414045000003,-1.8217251965,9.60275666,10.033431035
1078.0,-2.2761560495,-1.8165600135000002,9.602179571,10.034075415
1079.0,-2.2871302765,-1.8247155575,9.596027137,10.03216718
1080.0,-2.4125232954999998,-1.8909816154999999,9.544532185,10.025322625000001
1081.0,-2.4076845955,-1.9421840525,9.5492496565,10.037905765
1082.0,-2.357778406,-1.885781986,9.5658135015,10.030957945
1083.0,-2.3620525624999997,-1.8983080245,9.5650114445,10.03356105
1084.0,-2.37041238,-1.8995319625,9.561516326500001,10.032430999999999
1085.0,-2.3664395335,-1.9053887134999998,9.560939251499999,10.032053995
1086.0,-2.369506209,-1.9017878695000001,9.5622555765,10.03334886
1087.0,-2.371025276,-1.9009400875,9.562503647,10.0337836
1088.0,-2.3679514055,-1.906905367,9.561201565,10.03294893
1089.0,-2.3686668085,-1.9010915405,9.562350984,10.03310963
1090.0,-2.3529282685,-1.828312286,9.581857632999998,10.034496650000001
1091.0,-2.3471091325,-1.859222138,9.574276520000002,10.031570805000001
1092.0,-2.3644163015000004,-1.8583139815,9.573756894999999,10.03496978
1093.0,-2.44341559,-1.8986718085,9.5712008615,10.059675525
1094.0,-2.325487764,-1.9105104165000002,9.555900378,10.01973748
1095.0,-2.3152979609999997,-1.7893414575,9.588391479,10.0252284505
1096.0,-2.322504938,-1.879275946,9.5793877375,10.03457886
1097.0,-2.3572871375,-1.8960074274999998,9.5664382625,10.033364715000001
1098.0,-2.359061318,-1.889931302,9.565312709,10.03156109
1099.0,-2.3666022915,-1.8888043245000001,9.5662528535,10.034021615
1100.0,-2.3499586075,-1.8955872565,9.5659907405,10.031139335
1101.0,-2.359047004,-1.8793529384999998,9.569252179500001,10.033329015
1102.0,-2.3653568419999997,-1.882715315,9.5667292055,10.03303775
1103.0,-2.3852563829999998,-1.8868680905,9.5632433595,10.035207715
1104.0,-2.34350871,-1.884760459,9.567013178,10.028572149999999
1105.0,-2.3731261055,-1.887575251,9.5666910565,10.03575535
1106.0,-2.3654856705,-1.8812654169999998,9.566638597,10.032709315
1107.0,-2.362261587,-1.884437026,9.566943837499998,10.032836195
1108.0,-2.36415007,-1.8933257045,9.5659639405,10.034020134999999
1109.0,-2.365399537,-1.88553915,9.565668968499999,10.032566785
1110.0,-2.3668544645000003,-1.884074571,9.566462116,10.033391485
1111.0,-2.3607560100000002,-1.8905932970000001,9.5664318035,10.033151745
1112.0,-2.359084764,-1.886407994,9.5670183735,10.032530005
1113.0,-2.2483661055,-1.8550155245,9.5940378705,10.027636765
1114.0,-2.148929551,-1.712636382,9.6538742625,10.037370955
1115.0,-2.2190100635,-1.7167618550000001,9.63093383,10.03126189
1116.0,-2.2622045679999996,-1.7428926439999999,9.620965395,10.035863305
1117.0,-2.2406854605,-1.738099456,9.622085867,10.031270435
1118.0,-2.2601701935,-1.7440429645000002,9.618295855500001,10.03302901
1119.0,-2.2571829560000003,-1.7478523940000001,9.617987453000001,10.032724155
1120.0,-2.2557194995,-1.7429931189999999,9.6210184155,10.03445531
1121.0,-2.2573506070000002,-1.744280837,9.619191728,10.033295855
1122.0,-2.2572299435,-1.7437900165000002,9.619627967,10.033602075000001
1123.0,-2.2564269995000004,-1.7436719845,9.619437592,10.033216555
1124.0,-2.261550281,-1.7500672664999999,9.6187490525,10.034824830000002
1125.0,-2.2588282765,-1.7443857425,9.618359662500001,10.032847745
1126.0,-2.252814944,-1.741589514,9.620094674,10.032675495
1127.0,-2.2541170075,-1.746722742,9.620169474499999,10.03392968
1128.0,-2.2487445955,-1.747717725,9.621083933,10.033774305000001
1129.0,-2.255193558,-1.7461371775,9.619373174,10.033306225
1130.0,-2.259487263,-1.756032463,9.617012157000001,10.033737955
1131.0,-2.2530465045000003,-1.744981948,9.621449323499998,10.034614515000001
1132.0,-2.2542558325,-1.7452076015,9.6219993355,10.035452875
1133.0,-2.2590723325,-1.7548258145000002,9.618609899500001,10.03496418
1134.0,-2.252285588,-1.741195085,9.620665476500001,10.0330335
1135.0,-2.251059872,-1.747934138,9.620069315999999,10.03335882
1136.0,-2.250659249,-1.742449417,9.621543014,10.03372749
1137.0,-2.2511889875,-1.745827338,9.620761795,10.03368496
1138.0,-2.2546940955,-1.7497321755000002,9.6196114495,10.034048725
1139.0,-2.2553522614999997,-1.7464365695,9.619339591500001,10.03336179
1140.0,-2.2542934724999997,-1.7481535264999999,9.6199071305,10.033968245
1141.0,-2.253907157,-1.7481630655,9.619682981,10.03366739
1142.0,-2.25473183,-1.7492693005,9.620765878499999,10.035083645
1143.0,-2.260250355,-1.7533043965,9.617803868,10.034190205
1144.0,-2.2563204335,-1.7480199855,9.618886509,10.03342089
1145.0,-2.2594204925,-1.750934042,9.6189675805,10.03470423
1146.0,-2.2588611085,-1.7545435775,9.6177775975,10.034068425000001
1147.0,-2.2571646039999997,-1.747571668,9.6188483315,10.033496029999998
1148.0,-2.2577226145,-1.748711538,9.61790881,10.03291994
1149.0,-2.2595397255,-1.7503807994999998,9.6181186585,10.033822475000001
1150.0,-2.2557147300000002,-1.7459548675,9.618857883499999,10.03289771
1151.0,-2.2831032889999996,-1.733449383,9.6165348265,10.03473908
1152.0,-2.2683010355000004,-1.7557749409999999,9.617775278500002,10.036417465
1153.0,-2.166700068,-1.75604679,9.637567932500001,10.033002655
1154.0,-2.2251004745,-1.7497751235,9.625878332,10.033481994999999
1155.0,-2.2137208575000002,-1.7510628475,9.628568199,10.033755715
1156.0,-2.2198398939999997,-1.7443380689999999,9.626836955,10.032268680000001
1157.0,-2.219153112,-1.748453996,9.6287304,10.034650625000001
1158.0,-2.2164965995,-1.744471609,9.629164396,10.03378558
1159.0,-2.218146098,-1.7456926044999999,9.628249606,10.03348499
1160.0,-2.2173407695,-1.7474333629999999,9.6290880715,10.03441385
1161.0,-2.2165347544999996,-1.748635227,9.628229593,10.033621844999999
1162.0,-2.2183804815,-1.7506182665,9.627909149,10.03406989
1163.0,-2.221857317,-1.7433651285,9.6287590025,10.034389925
1164.0,-2.2231164175,-1.746493803,9.628096073,10.03457686
1165.0,-2.227080926,-1.748246801,9.6276180525,10.035302225
1166.0,-2.2257395445,-1.7519069925,9.625735241000001,10.033837535
1167.0,-2.228503271,-1.7471386915,9.62714199,10.03496812
1168.0,-2.2304802505,-1.751849758,9.62511047,10.03428036
1169.0,-2.227573864,-1.7489086280000001,9.6263573755,10.03431742
1170.0,-2.230795025,-1.748372916,9.626226492,10.034815045
1171.0,-2.2352924955,-1.751940391,9.624562005000001,10.034842555
1172.0,-2.228062204,-1.7469516605000002,9.6271326625,10.03482877
1173.0,-2.2322531789999998,-1.7483186795,9.6251202105,10.03406764
1174.0,-2.232850603,-1.75231715,9.624848153,10.034637055000001
1175.0,-2.23307953,-1.7494364745,9.624976922,10.034308815
1176.0,-2.2312719574999997,-1.7501518725,9.625520638000001,10.034552995
1177.0,-2.2328124485,-1.7553981324999999,9.624166143,10.03451411
1178.0,-2.229960394,-1.7503235705,9.625816311,10.03457504
1179.0,-2.2314198065,-1.753542864,9.623622438,10.03335801
1180.0,-2.256177342,-1.8272151355,9.606766989,10.035915155
1181.0,-2.2609085825,-1.819497921,9.60483608,10.033702015
1182.0,-2.2301079010000002,-1.8056973665,9.614721325000001,10.033792455
1183.0,-2.208835219,-1.7941094115,9.621924873000001,10.03390461
1184.0,-2.210625565,-1.7931617075,9.6209659425,10.033209594999999
1185.0,-2.2115575475,-1.79976306,9.6211174775,10.034742285
1186.0,-2.208585421,-1.7934730365,9.623505268999999,10.03525138
1187.0,-2.210199798,-1.7939132070000001,9.6225060725,10.034726375
1188.0,-2.208477901,-1.79070421,9.6229706015,10.034220455
1189.0,-2.2043625495,-1.792436732,9.624712323499999,10.035296145
1190.0,-2.2040009775,-1.7858741645,9.625148613499999,10.034463630000001
1191.0,-2.2022267895,-1.7934526265000001,9.6251772505,10.035454575
1192.0,-2.2031234225,-1.7897993395,9.6249578425,10.034786915000002
1193.0,-2.2066883754999997,-1.7932051095000001,9.6242556635,10.035505135000001
1194.0,-2.2044038515,-1.797778848,9.623548677999999,10.035144035
1195.0,-2.203934207,-1.7954319055,9.622887968499999,10.033986155000001
1196.0,-2.2000974214999998,-1.795765667,9.624998463499999,10.03522794
1197.0,-2.206029427,-1.7961253935000001,9.62373636,10.035385009999999
1198.0,-2.2013301575,-1.788463916,9.624924464,10.034123465
1199.0,-2.196694377,-1.7851063109999998,9.626236023,10.03376923
1200.0,-2.1926976854999998,-1.794954979,9.626388652500001,10.03479778
1201.0,-2.191724744,-1.7896467115,9.6278385105,10.035027115
1202.0,-2.1866417155,-1.7904932865,9.628718678,10.03491366
1203.0,-2.187317891,-1.7887214550000001,9.629674708500001,10.0356625
1204.0,-2.1847758424999997,-1.7925273810000002,9.628601602,10.03476036
1205.0,-2.183463287,-1.7896738215,9.6292742355,10.03460865
1206.0,-2.1871223485,-1.7877151285,9.628558675499999,10.034369595000001
1207.0,-2.1948391154999998,-1.798918279,9.623961069,10.0336466
1208.0,-2.202183866,-1.795231601,9.624686001499999,10.035290355
1209.0,-2.2034572745,-1.799514456,9.623598587,10.035296039999999
1210.0,-2.2361224049999997,-1.8023187875,9.6186766495,10.038458425000002
1211.0,-2.4822937234999998,-1.8244150595,9.531255723000001,10.017258865
1212.0,-2.228696542,-1.7999388985,9.6334901975,10.050634385
1213.0,-2.186334477,-1.6974679715,9.669315355,10.05786936
1214.0,-2.1398201500000003,-1.6461758275,9.648713923,10.019303715
1215.0,-2.1290987235000003,-1.6764610439999998,9.6648771395,10.03777595
1216.0,-2.1366390075,-1.6442537885,9.6487520395,10.0186699745
1217.0,-2.4493637154999996,-1.8148859645,9.5588264045,10.03488346
1218.0,-3.3693858050000003,-1.5214627185,9.2857586605,10.0080614695
1219.0,-3.7493442375,-1.0898822023999999,9.221095722000001,10.01616849
1220.0,-4.792064748,-1.40748536,8.7257250575,10.077139125
1221.0,-7.292657296,-1.7503760652,7.397057853,10.626547089999999
1222.0,-0.020374560900000005,4.037167773,8.2501519855,9.233786455
1223.0,0.1238593959,4.6495158585,8.767080124500001,9.930950647500001
1224.0,0.40163448825000003,4.6685025705,8.8451921795,10.010607579
1225.0,0.19692074315,4.697766179,8.856997421500001,10.027793169999999
1226.0,0.1374120302,4.803331468,8.791036678000001,10.018697565
1227.0,0.13135069336,4.8589845085,8.7561845135,10.01497739
1228.0,-0.08639157290499999,5.0362699165,8.652306264,10.011749975
1229.0,-0.16887035234999997,5.1024981945,8.62248228,10.020551335
1230.0,-0.2525548967,4.4523948209999995,8.7298746635,9.821633844
1231.0,-4.2855018175,1.1294574977999998,9.0709482225,10.1247790215
1232.0,-2.0515303874999997,2.5406820155,9.301974370500002,9.902721080500001
1233.0,-2.3652185035,5.852735728000001,7.798577884,10.042860433000001
1234.0,-2.304438211,5.165561697999999,8.153310805,9.956492408999999
1235.0,-2.6732025015,6.539270702,6.680643067,9.7876574225
1236.0,-2.069534599,7.453812835500001,6.357168284,10.085811466
1237.0,-2.290177923,7.0281791105,6.760839244,10.028919700500001
1238.0,-2.6062170235,6.795094251,6.8401750835,9.987905248499999
1239.0,-2.8727129590000002,6.8795287315,6.564309694,9.93522728
1240.0,-3.2511351335,6.7628377095,6.591275437,9.9875887685
1241.0,-3.4126579044999996,6.732328382,6.5224206315,9.9757767425
1242.0,-3.5573640095,6.7438844294999996,6.418539977,9.9666386255
1243.0,-3.574648066,6.723719749500001,6.447756846000001,9.9780654785
1244.0,-3.6348941850000003,6.649074966500001,6.494582115,9.980166732499999
1245.0,-3.638609495,6.6270692355000005,6.4981828705,9.969237072999999
1246.0,-3.9467985814999995,5.9754028105,6.553411775000001,9.719629199
1247.0,1.569704446,2.2797140225,10.1162414325,10.50487373
1248.0,0.31178194984999996,2.1861819685,9.755286538,10.039849777499999
1249.0,0.66493467185,2.5430332819999997,9.674487329,10.030454115000001
1250.0,1.199714441,2.295414637,9.6912038165,10.031482285
1251.0,1.1707455549999999,2.2353592705,9.698758446500001,10.02169563
1252.0,1.2744593165,2.205694081,9.710090396,10.03869967
1253.0,1.347973713,2.1315263174999997,9.6947140715,10.017410615500001
1254.0,0.83658271895,1.902317244,9.481506116,9.718569986
1255.0,0.7322537091000001,-1.26622745995,9.943291356500001,10.1942916195
1256.0,-6.0915692880000005,-3.135502817,7.2093276285000005,10.049328454000001
1257.0,-5.848290733,-5.519984655,5.664328289,9.886225218
1258.0,-5.3581757135,-3.934331545,7.505712645,10.049472049999999
1259.0,-4.6159493175,-2.012698534,8.650150624,10.0260068175
1260.0,-4.4913792704999995,-1.494625719,8.836016009,10.02421165
1261.0,-4.5787389515,-1.5504793135,8.7827328875,10.02523062
1262.0,-4.571637061000001,-1.5592721055,8.7824872805,10.02313753
1263.0,-4.553914846,-1.5607515255,8.79109584,10.0228476
1264.0,-4.5504138935,-1.5559354395,8.794069535,10.02311643
1265.0,-4.54713737,-1.5605235305,8.7950806445,10.023230094999999
1266.0,-4.5440577995,-1.5575601015,8.797377638,10.023388175000001
1267.0,-4.545835345,-1.556307447,8.796783339000001,10.023479015
1268.0,-4.54425193,-1.5565602219999999,8.7967642215,10.022782365000001
1269.0,-4.5421452635,-1.5537172250000002,8.7986096325,10.023006195
1270.0,-4.5400269600000005,-1.5526902755,8.7995731645,10.022733415000001
1271.0,-4.5384294665,-1.556307754,8.800314284999999,10.023222175
1272.0,-4.5377008665,-1.553177015,8.8020928765,10.023967639999999
1273.0,-4.537602714,-1.5536708314999998,8.802128197,10.02403082
1274.0,-4.5347895959999995,-1.552139057,8.8019723495,10.02238404
1275.0,-4.5377561145000005,-1.548714682,8.8018292545,10.02307072
1276.0,-4.5355956115,-1.5502647120000002,8.801819712,10.02232412
1277.0,-4.5359771575,-1.5487480675,8.8025064885,10.02286536
1278.0,-4.535877001999999,-1.5499117825,8.802163092,10.022698475
1279.0,-4.5366162464999995,-1.548404674,8.801624161,10.02232669
1280.0,-4.5391821414999995,-1.5479229724999999,8.8004222995,10.02235876
1281.0,-4.53813766,-1.5520627505,8.8017100225,10.023656724999999
1282.0,-4.544039886,-1.55553304,8.7976100385,10.023269464999998
1283.0,-4.5140245815,-1.5511929480000002,8.816950968499999,10.02607813
1284.0,-4.539825438,-1.5319155324999998,8.7927274945,10.013980796999999
1285.0,-4.81062847,-1.80143647,8.610202719,10.033082515
1286.0,-4.949897522500001,-2.4238764505,8.3382987055,9.995447194
1287.0,-4.9843463329999995,-2.2262117395,8.403523996,10.021143585
1288.0,-4.977712201,-2.1582536205,8.413286894,10.010979775
1289.0,-4.9535698825,-2.1608100025,8.4330462345,10.016148205
1290.0,-4.9522487825,-2.1522538395,8.433699636499998,10.014203179999999
1291.0,-4.956412398,-2.148476537,8.4323260645,10.01429483
1292.0,-4.9596555365,-2.1479232955,8.431086042499999,10.01473765
1293.0,-4.961668189999999,-2.1450855495,8.423889132,10.009069165
1294.0,-4.9644916285,-2.143015664,8.4146604975,10.0022611355
1295.0,-4.9712926809999995,-2.1417184085,8.4062951135,9.998325537500001
1296.0,-4.978718514500001,-2.1376024845,8.399746817,9.995635938500001
1297.0,-4.975918923,-2.1404736155,8.399684837999999,9.9948037525
1298.0,-4.980745476,-2.1370444735,8.39978022,9.9965541015
1299.0,-4.978708976,-2.136562772,8.399451126999999,9.995160068
1300.0,-4.979348065,-2.141913951,8.403485978,10.00001396
1301.0,-4.9748172095,-2.1380269535,8.4077593035,10.000520201
1302.0,-4.9783512765,-2.137645408,8.4122233695,10.005949600000001
1303.0,-4.972690092500001,-2.140320997,8.4157908275,10.00670621
1304.0,-4.9745596665,-2.1389903565,8.418576117,10.009693115000001
1305.0,-4.955792409000001,-2.1326471215,8.434829947499999,10.012717814999998
1306.0,-4.960800176499999,-2.1795677435,8.417393308000001,10.010633745
1307.0,-4.9630656015,-2.1980822495,8.413916475499999,10.01291357
1308.0,-4.9600132355,-2.1681547575,8.426030560000001,10.015020925
1309.0,-4.9614154164999995,-2.1585636519999998,8.4290638445,10.01619494
1310.0,-4.961324799,-2.1641103729999998,8.4270845945,10.01568183
1311.0,-4.959603074,-2.159307666,8.4283579865,10.014863535
1312.0,-4.9626459015,-2.1614013979999998,8.428167237,10.016662295
1313.0,-4.961634805,-2.1654648605,8.4274422695,10.016429455
1314.0,-4.9633326835,-2.1602138374999997,8.428896930499999,10.017359970000001
1315.0,-4.960852636,-2.165979947,8.427637805,10.016317185
1316.0,-4.957289953,-2.156546229,8.431505738999999,10.015772925
1317.0,-4.955239145,-2.1572950124999997,8.4332561,10.016393605
1318.0,-4.9534792655,-2.1600135255,8.433423031,10.016249365
1319.0,-4.950965835,-2.1545049575,8.435373671,10.015462565
1320.0,-4.9477990035,-2.158864119,8.4357790415,10.015179025
1321.0,-4.947350687,-2.1536512505000003,8.436937991499999,10.014809855
1322.0,-4.9504555155,-2.1554588235,8.436842603,10.016653170000001
1323.0,-4.9473649955,-2.1580914895000003,8.4378203435,10.016516825
1324.0,-4.945495421,-2.1540089495,8.4396660625,10.01626916
1325.0,-4.9424573635,-2.1594221295,8.440219305500001,10.01640264
1326.0,-4.936905873000001,-2.1569850065,8.444893223000001,10.01707793
1327.0,-4.935250919,-2.157333167,8.445856630000002,10.017149414999999
1328.0,-4.933815353,-2.1623791095,8.444602291999999,10.016473184999999
1329.0,-4.9358280065,-2.159651057,8.444449686999999,10.016747185
1330.0,-4.935060146,-2.1613775515,8.4438582795,10.016243079999999
1331.0,-4.9324608654999995,-2.1596892115,8.446085556,10.016476265000001
1332.0,-4.932809026,-2.156250531,8.447153870000001,10.016807475
1333.0,-4.931955318,-2.161339397,8.446777089000001,10.01716652
1334.0,-4.9311540715,-2.155921448,8.4471395785,10.015909605
1335.0,-4.932694562,-2.1580294875000003,8.444645232,10.015018935
1336.0,-4.9300571275,-2.1594698230000002,8.4455370905,10.01478295
1337.0,-4.9315690025,-2.1558785240000002,8.4471395955,10.016104715
1338.0,-4.931130225,-2.160318762,8.445952018,10.015844
1339.0,-4.9316739275,-2.1576765580000004,8.446519557,10.01602064
1340.0,-4.9317979295,-2.1557020590000002,8.4462334205,10.01541577
1341.0,-4.929274959,-2.1585541135,8.447153878,10.015564065
1342.0,-4.927958626000001,-2.1553252824999998,8.449552859,10.016244205
1343.0,-4.927872778499999,-2.1589451975,8.448990087,10.016507295
1344.0,-4.9312876125,-2.1580390265,8.4471252565,10.01641932
1345.0,-4.929346498499999,-2.1600278335,8.448160219,10.016765815
1346.0,-4.9286835635,-2.162760655,8.445322476000001,10.01463637
1347.0,-4.930991915,-2.1568562345,8.447001256,10.015914535
1348.0,-4.928669255,-2.1596367489999997,8.44699648,10.01536667
1349.0,-4.9251161105,-2.1625794205,8.449123608499999,10.016052425
1350.0,-4.9118001655,-2.163342512,8.458299791,10.017423735
1351.0,-4.909000573,-2.1651643925,8.457322055999999,10.015614115
1352.0,-4.8861030375,-2.1499406865,8.473323157,10.01468806
1353.0,-4.891802403,-2.101646498,8.481130516499999,10.01381871
1354.0,-4.952186779,-2.07011641,8.455070963,10.01489495
1355.0,-4.939567155000001,-2.0952699015,8.455156822,10.013950385
1356.0,-4.94824732,-2.0954416215,8.44981518,10.013773765
1357.0,-4.947703617,-2.0990615505,8.450048863,10.014453995
1358.0,-4.945132953,-2.1051186255000003,8.4519518175,10.016055695
1359.0,-4.9498259650000005,-2.1012316165,8.452662428,10.01815628
1360.0,-4.9130020304999995,-2.1592408955,8.45181828,10.01169262
1361.0,-4.929517687000001,-2.1393830725000003,8.454543573999999,10.017806329999999
1362.0,-4.938765908500001,-2.1307680345,8.4477882025,10.01482953
1363.0,-4.9437641575,-2.1376501770000003,8.4441968985,10.015728594999999
1364.0,-4.945853120500001,-2.1334817900000003,8.443533964,10.015312045000002
1365.0,-4.9454334200000005,-2.1321893039999997,8.4440490415,10.01526376
1366.0,-4.949945198,-2.1339587225,8.441335334,10.01558233
1367.0,-4.9476988475,-2.131860221,8.443219196,10.015613005
1368.0,-4.9488816395,-2.13095405,8.4426134915,10.015493875
1369.0,-4.9501264325,-2.135222593,8.441750264,10.01629076
1370.0,-4.948295012999999,-2.1310828219999998,8.442942566,10.015508875
1371.0,-4.949349033000001,-2.1307537385,8.44281856,10.015855165
1372.0,-4.946496978500001,-2.1365341559999997,8.44308087,10.015898885
1373.0,-4.9438070815,-2.1308014315,8.446600635,10.01631708
1374.0,-4.9454334200000005,-2.1301909585,8.446772347500001,10.017134765
1375.0,-4.945504959999999,-2.1306440445000003,8.447578366,10.01794636
1376.0,-4.9451758770000005,-2.13088251,8.446381258999999,10.01682537
1377.0,-4.9450566435,-2.128206918,8.4481268195,10.017669425
1378.0,-4.9433063025,-2.131135284,8.448918532499999,10.018095665
1379.0,-4.944450939499999,-2.132537465,8.447368502,10.017652185
1380.0,-4.945047105,-2.130095572,8.4478931335,10.017869035
1381.0,-4.9460057385,-2.1313022105000003,8.4462858635,10.017243565000001
1382.0,-4.9456575780000005,-2.1335437915,8.445174639000001,10.01661217
1383.0,-4.945690963500001,-2.1303531155,8.447521111,10.017927805
1384.0,-4.9454143429999995,-2.13207961,8.4467007995,10.017467100000001
1385.0,-4.948872100999999,-2.131712372,8.4452556955,10.017878105
1386.0,-4.945743426,-2.1287267764999998,8.44690112,10.017085510000001
1387.0,-4.946411131,-2.134969819,8.445742151000001,10.01776676
1388.0,-4.9478037725,-2.1305581965,8.446347877000001,10.018025405
1389.0,-4.9488959470000005,-2.1301718815,8.445818479,10.0180367
1390.0,-4.9481948575,-2.132704391,8.443934591,10.016641515
1391.0,-4.949902274,-2.1281306115,8.445346308000001,10.01770181
1392.0,-4.950164587,-2.134149495,8.4427994845,10.01696497
1393.0,-4.9500405845,-2.128903242,8.444731085499999,10.017415575000001
1394.0,-4.9498279489999994,-2.1289293395,8.444297977,10.01695106
1395.0,-4.952482477,-2.132117764,8.441478385,10.01656507
1396.0,-4.950283819999999,-2.1283500005000002,8.443948919,10.016758965000001
1397.0,-4.9504030530000005,-2.1321463805,8.4434052025,10.017167145
1398.0,-4.9502885894999995,-2.1297140265000003,8.444044287499999,10.01713147
1399.0,-4.950612903,-2.1292275555,8.443686599500001,10.01688696
1400.0,-4.9513855335,-2.1342258044999998,8.4414164045,10.016419330000002
1401.0,-4.9508990625,-2.1289652429999997,8.443309814500001,10.016655085
1402.0,-4.9519387745,-2.128979551,8.443610257500001,10.01742515
1403.0,-4.952496785,-2.1343116525,8.441530862,10.017084015
1404.0,-4.9513903025,-2.128431079,8.442632572499999,10.016213535
1405.0,-4.9512233765,-2.1316694480000002,8.442680285000002,10.01686033
1406.0,-4.953779732999999,-2.1304103475,8.442236740999999,10.01748199
1407.0,-4.953045256999999,-2.128860318,8.4430808945,10.01750069
1408.0,-4.951113682,-2.13524167,8.442594418,10.01749408
1409.0,-4.9544426685000005,-2.1305200419999997,8.442251042,10.017845345000001
1410.0,-4.969695654500001,-2.1201520814999997,8.440638767,10.021898109999999
1411.0,-4.998268066,-2.296993307,8.364572901999999,10.011456299999999
1412.0,-5.0901252615,-2.421587166,8.274594757500001,10.012209519999999
1413.0,-5.0285528735,-2.0587672980000002,8.386063435499999,9.998296212500001
1414.0,-4.9956974065,-1.9166538444999999,8.45744119,10.0088485805
1415.0,-4.8997290005,-1.781925155,8.632780691,10.0850343575
1416.0,-4.783605431,-1.801999247,8.527421536,9.942183215
1417.0,-4.8771551245,-1.87168885,8.64390464,10.099874074999999
1418.0,-4.774081082,-1.837959965,8.529672639000001,9.946140389
1419.0,-4.860635602,-1.928825169,8.627003982,10.088243255
1420.0,-4.7859948445,-1.8278489915,8.5448724835,9.963013055000001
1421.0,-4.8234054385,-1.9163867655,8.599037708000001,10.0440027135
1422.0,-4.8345084305,-1.9088655365,8.566186628499999,10.0198027185
1423.0,-4.7918992849999995,-1.8975765395000002,8.547915320000001,9.9814824525
1424.0,-4.8472997685,-1.916935232,8.610989664,10.065813445
1425.0,-4.789476462,-1.878532622,8.54260229,9.972168722
1426.0,-4.8364352495,-1.9405052475,8.594807323000001,10.05124988
1427.0,-4.798738515,-1.8481854050000002,8.5577258295,9.983919274
1428.0,-4.8398977814999995,-1.9191195885,8.6092822265,10.0612521585
1429.0,-4.789323854,-1.872642508,8.547462205,9.9751493205
1430.0,-4.8292488119999994,-1.9185480505,8.5966226435,10.0451522985
1431.0,-4.7927768585,-1.8885577445,8.556805338,9.9878443755
1432.0,-4.824368854,-1.918714193,8.5991235575,10.044991222
1433.0,-4.792280843,-1.8655648215,8.551230004,9.978468035
1434.0,-4.845447875,-1.942719587,8.620338704,10.077880194999999
1435.0,-4.767446957,-1.8505986785,8.534718589499999,9.9496126865
1436.0,-4.849064433000001,-1.9577082049999999,8.619841529999999,10.08208008
1437.0,-4.772273513,-1.8736726765,8.5385197335,9.9594976815
1438.0,-4.8471519385,-1.9424654385000002,8.618897198500001,10.07741709
1439.0,-4.767418338000001,-1.8696902905,8.534623190000001,9.953085617
1440.0,-4.8472330095,-1.944406557,8.6261179495,10.08397242
1441.0,-4.771968307,-1.848595552,8.543532311,9.9589764545
1442.0,-4.8209826805,-1.8775644475,8.593595899,10.030865079
1443.0,-4.822427746000001,-1.9285246974999999,8.601823004,10.04825446
1444.0,-4.7815451225,-1.8628415345,8.554730694,9.975822357
1445.0,-4.814009517000001,-1.8579925285,8.616250406999999,10.043415137
1446.0,-4.8392158335,-1.8792670995,8.6159449725,10.059115361
1447.0,-4.7635790495000006,-1.838517978,8.5376517375,9.948066509
1448.0,-4.8343176880000005,-1.9223818064999998,8.626928713,10.074287275
1449.0,-4.7696408515,-1.8760144175,8.546589439,9.965597703
1450.0,-4.8190987745000005,-1.885223988,8.6043650725,10.0407117065
1451.0,-4.824063631,-1.92696036,8.612186749,10.057658273
1452.0,-4.7679954470000006,-1.832098462,8.542010895499999,9.952716221500001
1453.0,-4.8272495405,-1.9240224559999999,8.626971659,10.071189055000001
1454.0,-4.7664501705,-1.8693850589999998,8.539774061,9.956987438
1455.0,-4.8247361145,-1.9078878220000002,8.6184917985,10.0597694965
1456.0,-4.791551131,-1.8902842415,8.566224762000001,9.995635113999999
1457.0,-4.802501511999999,-1.8902174724999998,8.5784533315,10.0114172615
1458.0,-4.8192895335,-1.927151132,8.6094253195,10.052997339000001
1459.0,-4.7704859785,-1.8712855350000002,8.549651930500001,9.9677467485
1460.0,-4.839282551,-1.938134893,8.6273675245,10.080042495
1461.0,-4.757622152,-1.8565221799999998,8.538252636500001,9.949045585
1462.0,-4.8273878695,-1.8851238289999999,8.612372762,10.0514342765
1463.0,-4.865113624,-1.8901695635,8.523817746999999,9.995342426
1464.0,-4.8740605175,-2.0230670685,8.530216376999999,10.030936115
1465.0,-4.9000437875,-2.1108561045,8.477544006,10.016730795
1466.0,-4.8968101875,-2.1272435175,8.4747634825,10.016263755
1467.0,-4.900081942,-2.1228795875,8.47431995,10.01656291
1468.0,-4.9068734565,-2.1240528315000002,8.4713629705,10.017634775000001
1469.0,-4.9109893805,-2.1292561589999996,8.4680578335,10.017966640000001
1470.0,-4.919039995,-2.122555267,8.461714624999999,10.01513635
1471.0,-4.852402972,-2.208064437,8.4804389545,10.01704856
1472.0,-4.837203175,-2.1673487295,8.499955054,10.01726382
1473.0,-4.885306584,-2.1306392615,8.4818983915,10.017408995
1474.0,-4.884061791500001,-2.137941106,8.481726698,10.01821232
1475.0,-4.881548359,-2.1371493985,8.4833339545,10.01817779
1476.0,-4.8821302165,-2.136352922,8.4819794725,10.01714422
1477.0,-4.880298911000001,-2.1428828859999998,8.4830402945,10.018545795000001
1478.0,-4.8822256025,-2.1351224369999997,8.483515198,10.01822879
1479.0,-4.879679758,-2.145647242,8.480158421999999,10.016398814999999
1480.0,-4.885778747,-2.1422191870000002,8.4780257005,10.01682912
1481.0,-4.8868191405,-2.1426497319999998,8.4771192485,10.016661684999999
1482.0,-4.8859742895,-2.146812044,8.4777395355,10.017666694999999
1483.0,-4.8897611305,-2.140611926,8.4769239975,10.017495905
1484.0,-4.887085541,-2.146874045,8.4773484685,10.01788999
1485.0,-4.8885258765,-2.142309804,8.4769764535,10.01730035
1486.0,-4.8883494115,-2.142109493,8.476881069000001,10.01709074
1487.0,-4.885773978,-2.147775447,8.476461391499999,10.01669253
1488.0,-4.8872667755,-2.1410125485,8.478197405500001,10.017442079999999
1489.0,-4.886083984000001,-2.1452810915000002,8.477978005499999,10.01759268
1490.0,-4.887071233,-2.1424338065,8.478116325999999,10.017581895
1491.0,-4.8881729465,-2.139829757,8.4772959875,10.01686866
1492.0,-4.8895989735,-2.145581559,8.476427981,10.018060245000001
1493.0,-4.8882874105,-2.1409410089999996,8.477152931,10.017040765
1494.0,-4.8892221970000005,-2.1397486785,8.478035239,10.01798885
1495.0,-4.8867039955,-2.1455290965,8.477467693000001,10.01751625
1496.0,-4.888077559999999,-2.139782064,8.476041666499999,10.015750189999999
1497.0,-4.8886498785,-2.1432350525,8.476346918499999,10.017026585
1498.0,-4.8867516890000005,-2.1422954965,8.477019363,10.016468195
1499.0,-4.889436817,-2.1396008295,8.477214916,10.017367759999999
1500.0,-4.885826440000001,-2.146234956,8.477267368,10.017070019999998
1501.0,-4.8880489444999995,-2.141026857,8.4769335135,10.01675702
1502.0,-4.8879583275,-2.141656407,8.4777156955,10.017509525000001
1503.0,-4.8868566135,-2.1449472390000004,8.476461376,10.016615215
1504.0,-4.8882635635,-2.1407216205,8.4775106045,10.017284885
1505.0,-4.887538627,-2.1416182525,8.4775630865,10.017167895
1506.0,-4.888301718,-2.1423145740000002,8.476294443499999,10.016615139999999
1507.0,-4.889160196000001,-2.140740698,8.4772483095,10.01750457
1508.0,-4.8871332345,-2.1449329314999996,8.4763802935,10.016677925
1509.0,-4.889193581500001,-2.141117474,8.4772292305,10.017585485000001
1510.0,-4.889250813,-2.140569002,8.478087714,10.01822263
1511.0,-4.886546608,-2.1452477065,8.477362769500001,10.017290535
1512.0,-4.890977308,-2.1391048205,8.4769526175,10.01779189
1513.0,-4.8865704545,-2.1443892284999997,8.477338920000001,10.01709872
1514.0,-4.890028213,-2.14142748,8.476227677,10.01721135
1515.0,-4.890347757,-2.139767756,8.477772933,10.018320280000001
1516.0,-4.884197108,-2.117071066,8.485665876999999,10.017198650000001
1517.0,-4.9911760009999995,-2.169428138,8.407787834499999,10.015699775
1518.0,-5.077882305,-2.176081366,8.3530931355,10.01471006
1519.0,-5.081425853,-2.2004573714999998,8.345261924999999,10.015306415000001
1520.0,-5.106216801,-2.224413673,8.323556548500001,10.015143864999999
1521.0,-5.114458175499999,-2.228768064,8.3160257,10.014059185
1522.0,-5.1129749135,-2.235416498,8.314470899,10.01349366
1523.0,-5.117744235,-2.2284246725,8.3146569,10.014524555
1524.0,-5.115612348,-2.232879219,8.3141036775,10.01396931
1525.0,-5.1171337615,-2.228148052,8.314718887,10.014202755
1526.0,-5.1197616615,-2.226769718,8.3131402425,10.01392862
1527.0,-5.1068941,-2.226979591,8.317943060000001,10.01140907
1528.0,-5.2322702595,-2.067455178,8.287090405,10.017231765
1529.0,-5.818463365,-1.8216107140000002,7.928108001,10.002618679000001
1530.0,-6.338819485,-2.216238798,7.415783042499999,10.028403820000001
1531.0,-8.966740274500001,-1.0454808469999999,2.8390491615,9.781021139
1532.0,0.139831872085,3.6144290210000003,9.4171011275,10.114686096
1533.0,-0.5549206294,5.3301606855,8.345672045,9.9192655455
1534.0,-0.46199507925,5.4283086285,8.4246807155,10.033395534
1535.0,-0.3000474998,5.3004675915,8.486261534,10.010122672
1536.0,-0.3579665392,5.270801776000001,8.4914608835,10.000736263
1537.0,-0.34493674080000003,5.226137074,8.518879708,10.0001581265
1538.0,-0.33805460285,5.2120294275,8.528485131,10.00072978
1539.0,-0.34704478195,5.189770996,8.5413003005,10.0003990435
1540.0,-0.3617724604,5.1832465375,8.5484733545,10.00366804
1541.0,-0.37762570065,5.174284933999999,8.550066319,10.0009761225
1542.0,-0.3804396035,5.166272454,8.559399874499999,10.004928445000001
1543.0,-0.3902453372,5.1828697945,8.544300199,10.0009750135
1544.0,-0.41027997935000005,5.199502326499999,8.533667503,10.00139953
1545.0,-0.4379004443,5.239939497,8.502458945,9.997026165000001
1546.0,-0.42462741035,5.221396375,8.510962647500001,9.9939979965
1547.0,-0.4284381592,5.2184719605000005,8.520004754,10.000329327
1548.0,-0.42900088175,5.222407471,8.514668398000001,9.9978580075
1549.0,-0.44779202655,5.2126065155,8.5256760055,10.002947585000001
1550.0,-0.4497760652,5.265274119000001,8.489548343,9.999893831
1551.0,-0.7387209180500001,5.5482095094999995,8.257458575,9.980546431499999
1552.0,-0.6187246713029999,4.186123378,9.0591489355,10.017756304999999
1553.0,-0.026841481189999995,4.3994379165,9.022333448,10.03882944
1554.0,-0.63805952275,5.170001936,8.508868871499999,9.9848627145
1555.0,-0.90512270635,5.2638957170000005,8.465429832,10.009812956000001
1556.0,-0.8912105836499999,5.0866626865,8.5696157725,10.005425735
1557.0,-0.92578342675,5.03812999,8.6066828985,10.015753100000001
1558.0,-0.8591130175,5.032721541,8.606558948,10.00696983
1559.0,-0.6572322145,4.8750620865,8.7364801145,10.02624003
1560.0,-0.07368608740000002,3.7336192425,9.046080972999999,9.8021362685
1561.0,-2.46297538665,-2.218576024,9.196300424499999,10.150676789999999
1562.0,-6.8568744335,-5.1003316395,4.935417871,9.901743295500001
1563.0,-6.464091809999999,-4.260181435,6.29569166,9.985615148
1564.0,-5.328302952,-2.0248971745,8.155997221,9.998972746
1565.0,-3.471191833,-1.8252735465,9.235904823,10.03484364
1566.0,-3.300426105,-1.81195283,9.292316484499999,10.026216533500001
1567.0,-3.384571378,-1.814738117,9.273839954500001,10.037606085
1568.0,-3.381136026,-1.748378426,9.2819216985,10.032098885
1569.0,-3.3692047965,-1.746957498,9.288444922,10.033877839999999
1570.0,-3.371613797,-1.7426208035,9.289120197999999,10.03455387
1571.0,-3.36385376,-1.74612485,9.291426343000001,10.034693990000001
1572.0,-3.369180787,-1.737241318,9.291934748500001,10.035409345
1573.0,-3.3653370175,-1.7398509015,9.2925816415,10.035171895000001
1574.0,-3.3611845805,-1.7391990860000002,9.29368033,10.03468445
1575.0,-3.3657707214999997,-1.7324481495000001,9.2935801675,10.034959985
1576.0,-3.3561748280000003,-1.7399836815,9.295507,10.03483534
1577.0,-3.3602812479999997,-1.7324674395,9.2943604375,10.033846839999999
1578.0,-3.363886837,-1.7227998125,9.296456094,10.035341429999999
1579.0,-3.345338947,-1.7126411574999998,9.304449521999999,10.03480107
1580.0,-3.3510144410000002,-1.7058401055,9.303147443,10.034328389999999
1581.0,-3.3472152565,-1.7127329384999999,9.3045200295,10.035507765
1582.0,-3.351513045,-1.704190282,9.302609481,10.03371571
1583.0,-3.348305463,-1.7037654500000001,9.297576850999999,10.027906905
1584.0,-3.340762658,-1.7083710120000002,9.289523751499999,10.018707339999999
1585.0,-3.3460495774999996,-1.7014714065,9.284108274000001,10.014276344999999
1586.0,-3.3427539695,-1.7069752034999999,9.2812991505,10.01150837
1587.0,-3.337560182,-1.706388577,9.2817617735,10.010104855
1588.0,-3.3446235504999997,-1.705410866,9.2798778985,10.01054801
1589.0,-3.3420725245,-1.7141651465,9.2800333775,10.01133721
1590.0,-3.339391604,-1.710051416,9.282315019,10.011852614999999
1591.0,-3.3458874145,-1.7075189064999998,9.281671168999999,10.01299213
1592.0,-3.3398132455000002,-1.7147536804999999,9.283623223500001,10.01401028
1593.0,-3.3359433545000003,-1.707709679,9.287380057,10.015000234999999
1594.0,-3.3358909,-1.703154977,9.290480104499999,10.017082075
1595.0,-3.3256892735,-1.7097795640000002,9.2929887715,10.01714557
1596.0,-3.335137369,-1.7013044805000002,9.2927407895,10.01861354
1597.0,-3.3291423085,-1.7071230525,9.296141317,10.020764665
1598.0,-3.3289562915,-1.7023918855,9.2981539665,10.021764605
1599.0,-3.337164319,-1.7018815680000001,9.300223839000001,10.026326985
1600.0,-3.3296430839999998,-1.7065555035,9.3044638065,10.028554465
1601.0,-3.3374361715,-1.7019054150000001,9.305336593,10.031164045
1602.0,-3.3362581505,-1.703050052,9.3071966475,10.032693735
1603.0,-3.3290278435,-1.707013358,9.311250637,10.034726865
1604.0,-3.338785889,-1.6992298255,9.3097196955,10.035225780000001
1605.0,-3.3302010925000003,-1.7074330585,9.313611517,10.03738162
1606.0,-3.3289705864999997,-1.7024586565000002,9.313330141,10.0358628
1607.0,-3.3370116985,-1.7055253295,9.3114653015,10.037322855
1608.0,-3.3333011375000003,-1.7052820945,9.314441396,10.03880993
1609.0,-3.3313791115,-1.6919041479999999,9.3168022415,10.038100475
1610.0,-3.3267099315,-1.6948658965,9.315633717,10.03596679
1611.0,-3.3189089575,-1.702869371,9.3188860255,10.037756765000001
1612.0,-3.3229278535,-1.7006081595,9.317861030500001,10.037751335
1613.0,-3.3270342305,-1.6966210065,9.3171217965,10.037751735
1614.0,-3.324082031,-1.698686122,9.3174938075,10.03746842
1615.0,-3.3324045245000002,-1.697827645,9.315409580499999,10.03814739
1616.0,-3.320333324,-1.7055208655,9.3177325035,10.03760701
1617.0,-3.3301382915,-1.6967037255,9.316552270999999,10.03826536
1618.0,-3.3283982830000003,-1.695304674,9.3171981165,10.038053505
1619.0,-3.3223698070000003,-1.6989835565,9.319242711000001,10.038575134999999
1620.0,-3.32054795,-1.694336502,9.320460366999999,10.03831663
1621.0,-3.2912875550000003,-1.6887215869999999,9.3303113845,10.036906105
1622.0,-3.15725511,-1.6301592674999998,9.383852564,10.034365425
1623.0,-3.1721214855,-1.8043348435,9.354773942000001,10.04237886
1624.0,-3.545803174,-1.888276336,9.199333609,10.038242945
1625.0,-3.5907943705000003,-1.8702457570000002,9.1807966325,10.033886644999999
1626.0,-3.6103179145000004,-1.879772617,9.172344018,10.034930840000001
1627.0,-3.6122733399999998,-1.881837736,9.1706556495,10.034478435
1628.0,-3.6164083415,-1.8749603664999999,9.1704744155,10.034514995
1629.0,-3.6085771145,-1.883316229,9.171142128,10.03387124
1630.0,-3.6164456185000002,-1.8740230395,9.1714972175,10.03528792
1631.0,-3.615850331,-1.8770016365,9.1699020945,10.034173079999999
1632.0,-3.614311576,-1.876284329,9.1699844355,10.03356048
1633.0,-3.6182050974999997,-1.871452203,9.169623684000001,10.033730290000001
1634.0,-3.6153930675,-1.878346968,9.170908115500001,10.03517957
1635.0,-3.614753387,-1.8741257335000001,9.1707987385,10.034059165
1636.0,-3.6172451280000004,-1.872443058,9.169844671,10.033770910000001
1637.0,-3.6126310385,-1.881856821,9.1702502825,10.03424043
1638.0,-3.616706863,-1.8736660095,9.1696608945,10.033637745
1639.0,-3.6141667605,-1.8763100835,9.170965668000001,10.03440878
1640.0,-3.6121922609999997,-1.8786756695000002,9.170655659,10.03385733
1641.0,-3.6176588195,-1.8739853425000002,9.1691469725,10.033570300000001
1642.0,-3.6107471569999996,-1.8787472105,9.170150124,10.032888459999999
1643.0,-3.6108919725,-1.8742337285000001,9.171233713,10.03308661
1644.0,-3.614324148,-1.8727521685,9.1694728425,10.032436015
1645.0,-3.6073990905,-1.8813083385,9.1708368915,10.032792655
1646.0,-3.5466514155,-1.899706637,9.192366188000001,10.034331175
1647.0,-3.6027054695,-1.884216866,9.17166913,10.032470065
1648.0,-3.4156911990000003,-1.6800380405,9.247131908,10.0026661975
1649.0,-3.6858592139999997,-1.939179373,9.159457359000001,10.06196062
1650.0,-3.9158599405,-1.8690845820000002,9.051060139,10.037526195
1651.0,-4.413698575,-1.6109865355,8.853837454,10.02746839
1652.0,-5.657851537,-1.9136968625,8.013111697500001,10.0265740705
1653.0,-8.157154878,-0.42738885159999995,5.6086845665,10.221623095
1654.0,0.62506310875,2.7457582560000002,8.825137173,9.385382855500001
1655.0,1.1625232325,3.2986996165,9.4495612005,10.07627615
1656.0,1.9819077665,3.243098813,9.2264711885,9.983642888999999
1657.0,0.6033435964,3.0802072605,9.5197895135,10.029541285
1658.0,-1.6266740475,2.589195599,9.4335744045,9.935755353000001
1659.0,-2.8786617705,0.25717568700000004,9.4461779845,9.9793824785
1660.0,-6.5662126335,-2.87211679,6.878841947,10.0201118725
1661.0,-5.26827726,-4.155193505,7.383354822499999,10.039794520000001
1662.0,-4.002623509999999,-2.2387788769999997,8.949382922,10.059378385
1663.0,-3.840909954,-2.1920061195000002,9.003996435000001,10.031824230000002
1664.0,-3.8062084035,-2.078901523,9.0414738315,10.02782646
1665.0,-3.8019398349999998,-2.0791876790000003,9.042375217,10.02707929
1666.0,-3.8013584515,-2.077109835,9.044012386,10.027904965000001
1667.0,-3.8057648605,-2.0740224850000004,9.042775838,10.027822095000001
1668.0,-3.804200508,-2.0727061295,9.043662954999999,10.02775612
1669.0,-3.800222866,-2.0693342120000002,9.0463289815,10.027956750000001
1670.0,-3.8043112375000003,-2.06698241,9.0442662235,10.027160775
1671.0,-3.8013389005000002,-2.0696394390000004,9.046605602,10.028692035
1672.0,-3.803632961,-2.064483793,9.0460857375,10.02803005
1673.0,-3.781455554,-2.0620037655,9.056578264,10.02862002
1674.0,-3.720627554,-2.0644361435,9.081421638999998,10.0288211
1675.0,-3.7072066885000003,-2.0448675979999997,9.0877553245,10.02561512
1676.0,-3.7563593115,-2.072057495,9.063865772,10.027827945
1677.0,-3.7500256524999998,-2.0789969084999997,9.0660405825,10.028859140000002
1678.0,-3.7523101565,-2.0742036974999998,9.064767188,10.02756994
1679.0,-3.7477602235000003,-2.0783530345,9.066064432000001,10.027900695
1680.0,-3.745881111,-2.0782671885,9.067585852,10.02855607
1681.0,-3.7529641070000004,-2.0753532615,9.0657849815,10.02897255
1682.0,-3.7501194545,-2.0817152720000003,9.0662480775,10.02964553
1683.0,-3.755314867,-2.079014582,9.064902538,10.0298131
1684.0,-3.756044535,-2.0827694655,9.063989789499999,10.03004097
1685.0,-3.7535542815,-2.0810450905,9.065084329000001,10.02973957
1686.0,-3.754739426,-2.0787233394999998,9.064222631,10.02892362
1687.0,-3.7547902085000002,-2.0857217,9.0628213175,10.02912888
1688.0,-3.7547067595,-2.079812777,9.064346560499999,10.02924853
1689.0,-3.7573656370000004,-2.0801272319999997,9.063407917,10.029461155
1690.0,-3.7557232165,-2.0845621665,9.0632661685,10.029638595
1691.0,-3.7596966905,-2.0796513715,9.063099417,10.02995723
1692.0,-3.759035453,-2.0816099169999998,9.0611580145,10.02836146
1693.0,-3.7566814685,-2.0841888085,9.061527764000001,10.028349330000001
1694.0,-3.7599649175,-2.0790541245,9.0616575825,10.028631095000001
1695.0,-3.7572225575,-2.0856406295000003,9.061986674,10.029269005
1696.0,-3.7588099975,-2.0807317045,9.060623801,10.02761194
1697.0,-3.7611930745,-2.0807912369999997,9.0604613655,10.02837146
1698.0,-3.7581954995,-2.08364226,9.061576526,10.028847209999999
1699.0,-3.7606278535,-2.079802922,9.0602363475,10.02775076
1700.0,-3.8671863715,-2.1021947450000003,8.999503784,10.0186998585
1701.0,-3.8185156339999997,-2.0650694035,9.0562833075,10.043453809999999
1702.0,-4.145569815,-2.255447672,8.8372798535,10.018839555
1703.0,-4.2640077655,-2.24975077,8.788238201,10.023786535
1704.0,-4.258230953,-2.2399807395,8.7925004905,10.022891815000001
1705.0,-4.237598868499999,-2.207411042,8.8145920915,10.0263143
1706.0,-4.2177558355,-2.220424747,8.815217963,10.02137252
1707.0,-3.9926903845000004,-2.5091951845000002,8.8458283465,10.025563785
1708.0,-3.962526935,-2.4894821855,8.881977339999999,10.044475975000001
1709.0,-4.3784225865,-2.371871728,8.6698765065,9.999699187000001
1710.0,-4.2005845065,-2.4466208715,8.7767793885,10.03342473
1711.0,-4.1724700505,-2.4623016074999997,8.7872853345,10.036472725
1712.0,-4.160636086,-2.435194057,8.794890143500002,10.031447095
1713.0,-4.0676145875,-2.4415206925,8.8286858445,10.023007105000001
1714.0,-3.668789793,-2.71912157,8.918220153,10.0225279
1715.0,-3.4854096080000003,-2.856609391,8.958350351,10.02824083
1716.0,-3.4095588915,-2.783099536,9.007175704,10.02498468
1717.0,-3.422081022,-2.7732189675,9.0037800405,10.023447035
1718.0,-3.495545172,-2.7935830225,8.9721527915,10.026116734999999
1719.0,-3.5332497835,-2.7851888505,8.958503856,10.02476948
1720.0,-3.5429827654999997,-2.7274745465,8.9713611795,10.023840875
1721.0,-3.5574737225,-2.6911685634999998,8.9779893845,10.025089005
1722.0,-3.604609023,-2.6399794355,8.976277206999999,10.026788025
1723.0,-3.566931303,-2.641386366,8.993365675,10.02898534
1724.0,-3.574609917,-2.608320596,8.993957067499998,10.023715925
1725.0,-3.752467634,-2.5034335815,8.947728035499999,10.020846235
1726.0,-3.867999803,-2.5182137,8.895728132,10.021847325
1727.0,-3.929822987,-2.490841358,8.880348869,10.025391655
1728.0,-3.9090016734999997,-2.4737301905,8.890753689,10.02223472
1729.0,-3.9167613680000004,-2.480865096,8.887515353000001,10.02415309
1730.0,-3.9191645335,-2.480972329,8.8861037195,10.02386753
1731.0,-3.92188133,-2.4801702055,8.884896439999999,10.023664885
1732.0,-3.924809884,-2.4806895654999996,8.883709661000001,10.023884240000001
1733.0,-3.926245431,-2.4804250779999997,8.883441588,10.024143375
1734.0,-3.925853774,-2.4796059565,8.882950696,10.023352254999999
1735.0,-3.92722049,-2.4797776904999997,8.882817572,10.02381197
1736.0,-3.92707741,-2.480469242,8.884019437500001,10.02499215
1737.0,-3.9272538755,-2.479811076,8.88092413,10.022155525
1738.0,-3.9260663145,-2.4782467385,8.876851137,10.017694005
1739.0,-3.9266386325,-2.4763485485,8.871423655000001,10.012639790000001
1740.0,-3.9274262385,-2.4776748775,8.871584003999999,10.013418654999999
1741.0,-3.927745115,-2.4781942755,8.8725015195,10.014485205
1742.0,-3.9275018800000003,-2.4773596445,8.875668368,10.016989255
1743.0,-3.927722776,-2.476420222,8.876819389000001,10.017863345
1744.0,-3.928665594,-2.478098889,8.878873335,10.020468135
1745.0,-3.9281600465,-2.4778174995,8.880657065000001,10.021780855
1746.0,-3.927072641,-2.477698266,8.8806475185,10.021316729999999
1747.0,-3.926843389,-2.478981462,8.881001994999998,10.021858375
1748.0,-3.926205502,-2.4779488655,8.884088141,10.024088315
1749.0,-3.9257944625,-2.478971675,8.8848302355,10.024837725000001
1750.0,-3.9231045655,-2.479477223,8.8853405425,10.02436201
1751.0,-3.925637075,-2.4744360505,8.885760239,10.02448049
1752.0,-3.922027996,-2.4755662265,8.8869177625,10.0243723
1753.0,-3.9207057685,-2.4802326455,8.886627493,10.024751845
1754.0,-3.9203383594999996,-2.4759956185,8.887405642000001,10.024250355
1755.0,-3.9211122485,-2.4758087945,8.887580032,10.024661745
1756.0,-3.905564775,-2.474579531,8.894392758999999,10.02433378
1757.0,-3.9067934865,-2.474235739,8.893329155,10.023780989999999
1758.0,-3.907055799,-2.4758430005000003,8.893057299,10.024039165
1759.0,-3.904340815,-2.477320975,8.895511176500001,10.02552398
1760.0,-3.9058853310000003,-2.473581789,8.8935389725,10.023451665
1761.0,-3.9045598029999997,-2.4775207905,8.894356844,10.02463388
1762.0,-3.9086811470000002,-2.470854497,8.894751498000002,10.024950019999999
1763.0,-4.303453547,-2.171960646,8.775159409499999,10.014457409999999
1764.0,-7.6073422085,-3.167719619,5.396482938,10.62702321
1765.0,-0.694218335,1.2018272533199998,7.676421124499999,8.3752220945
1766.0,1.828139916,3.462273193,9.250985541,10.04540515
