,Time (s),Acceleration x (m/s^2),Acceleration y (m/s^2),Acceleration z (m/s^2),Absolute acceleration (m/s^2),Sound pressure level (dB),Attitude x (m/s^2),Attitude y (m/s^2),Attitude z (m/s^2),Absolute Attitude (m/s^2),Tilt up/down (deg)_x,Tilt left/right (deg)_x,Left Pupil X,Left Pupil Y,Right Pupil X,Right Pupil Y,Blinking,Looking Center,Looking Left,Looking Right,Gyroscope x (rad/s),Gyroscope y (rad/s),Gyroscope z (rad/s),Absolute (rad/s),Linear Acceleration x (m/s^2),Linear Acceleration y (m/s^2),Linear Acceleration z (m/s^2),Absolute Linear acceleration (m/s^2),Event,PositionX,PositionY,Inclination (deg),Rotation (deg),Tilt up/down (deg)_y,Tilt left/right (deg)_y,Tilt up/down (deg),Tilt left/right (deg),isDistracted
0,0.0,0.07661445403,0.1847335619,9.993017938,9.995018948,-35.91186365,0.07659545242,0.1850090851,9.993141451,9.995147386,1.05851466,0.4391555563,265.0,254.625,342.0,249.75,1.0,0.0,0.0,0.0,-0.03426177973,-0.02252484795,0.01823208592,0.0448736814,-0.001793202246,0.01332243788,0.188479051,0.1889578143,97.0,1226.9093105670104,805.2795183634021,1.145959484,22.53062776,67.46937224,89.56084444,88.94148533,22.53062776,0
1,1.0,-0.596781006665,-0.01776097025,9.9391849695,9.980964864,-36.407365725000005,-0.656850668625,-0.0257448222,9.9218055445,9.9733606685,-0.099059911,-3.35815753635,286.2,246.93333333333337,369.93333333333334,244.66666666666663,1.0,1.0,1.0,0.0,-0.11263792281,0.38357902665,0.3527128822,0.56192126055,-0.3445548578999999,-0.014368717492,0.130568108745,0.5156720884,72.0,1283.7223307291667,709.3244900173611,4.1451812375,-42.425405255,-47.57459475000001,93.35815753,90.099059905,-42.425405255,0
2,2.0,-2.2435148409,-0.69965059985,9.8675592475,10.257648374,-48.27237055,-2.20153523275,-0.6963740729,9.8837224955,10.25792243,-4.2521893995,-13.1400783905,289.2857142857143,265.85714285714283,366.7857142857143,264.2857142857143,1.0,1.0,1.0,0.0,-0.0295398681499999,-0.3704191880999999,0.200609244095,0.5336140111000001,0.2422484442499999,-0.179323232525,0.5991402583000001,0.8242538084,22.0,972.281072443182,723.1526988636364,13.718881921,-105.6499708,-164.3500292,103.140078385,94.252189395,-105.6499708,0
3,3.0,-4.5997765600000005,-1.85536323455,7.7520769385,9.609903144,-40.970142425,-4.635150651,-1.88099836295,7.719139973499999,9.602231121,-13.4181850835,-29.84282165,280.14285714285717,280.42857142857144,350.35714285714283,275.7142857142857,1.0,1.0,0.0,0.0,-0.60222773425,0.95568439405,-0.136545895115,1.166512143,0.3136435497,-0.06290392175,0.1364639382999999,1.0920455735,68.0,179.56393612132354,875.884765625,32.075154405,-102.81636187,12.81636189999999,119.84282165,103.4181851,-102.81636187,0
4,4.0,-6.6939971825,-4.8716710745,5.3041774,9.905029739500002,-13.369230955,-6.676231443000001,-4.863095826,5.3270129310000005,9.908386013,-43.03568772,-51.78834419,293.1333333333333,267.53333333333336,368.06666666666666,266.53333333333336,1.0,0.0,1.0,0.0,0.73575609025,0.02579128355,-0.4169099188,0.94712422735,0.151189674535,-0.28466538783,0.03419692055,0.63880840505,34.0,481.89855238970586,465.3406479779411,57.343462745,-126.02100765,-143.97899230000002,141.78834415,133.0356877,-126.02100765,0
5,5.0,-3.6086438265,-2.810354025,8.8734790185,10.016948689,-45.587841645,-3.59715452,-2.806724569,8.878658507499999,10.016514292,-17.679892695,-22.217524895,289.73333333333335,260.8666666666667,375.4,260.06666666666666,1.0,1.0,1.0,0.0,0.266516647725,-0.22393153154,-0.10604155941,0.3671189485,-0.04383229635,-0.3611846125,0.12416707767,0.5151723854,72.0,230.52159288194449,53.636555989583336,27.34562892,-127.43263805,-142.5673619,112.2175249,107.67989265,-127.43263805,0
6,6.0,-3.073849749,-2.2026989495,9.250703962,9.993797277,-35.16664731,-3.0749991574999997,-2.2037863555,9.250870889,9.994545432,-13.39175098,-18.378982235,295.1333333333333,262.73333333333335,374.8666666666667,262.0,1.0,0.0,0.0,0.0,-0.005838795155,0.0136415389335,-0.0042111898821999,0.0173082948,-0.04807347905,-0.030383799655,0.1814088676999999,0.1907947421,53.0,555.4974941037735,175.63716096698113,22.2320046,-125.62454525,-144.37545475000002,108.37898225,103.391751,-125.62454525,0
7,7.0,-3.1040300565,-2.175213353,9.242810747,9.989808158,-36.938211415,-3.104502219,-2.1746839585,9.242710592000002,9.989744689999998,-13.28785693,-18.63061387,306.6,259.93333333333334,389.26666666666665,258.93333333333334,1.0,0.0,1.0,0.0,0.000972955679,-0.00268756461135,-0.004208006791,0.008163803231,-0.066000030885,-0.00910306746,0.17420319585,0.1865410868499999,92.0,403.4770720108696,663.3674847146739,22.37313608,-125.0118316,-144.9881684,108.6306139,103.2878569,-125.0118316,0
8,8.0,-3.0808892855,-2.16033307,9.2568325405,9.992393867,-39.114313955,-3.0800403445,-2.160318762,9.257118698,9.992394053,-13.136550745,-18.410046825,309.3333333333333,254.8,392.0,254.33333333333337,1.0,0.0,1.0,0.0,-0.0038515039491,-0.0026780154225,0.001420706266,0.006344552937,-0.063551331265,-0.0085729169315,0.17759985545,0.18883529255,58.0,1139.3052262931035,833.0575161637931,22.122604265,-125.0364039,-144.96359610000002,108.41004685,103.1365507,-125.0364039,0
9,9.0,-3.0883389745,-2.1578005495,9.254228476000002,9.9917337465,-51.62363112,-3.0880289684999997,-2.1580342459999997,9.2540138575,9.991489986,-13.124633135,-18.455260505,297.8,250.33333333333337,379.4,248.4,1.0,0.0,1.0,0.0,-0.0031056066404999,-0.0033825329705,0.0005602187634,0.0049587646065,-0.06912923616,-0.01317829555775,0.1737375941,0.1878668718,0.0,0.0,0.0,22.151725300000003,-124.94031765,-145.0596823,108.4552605,103.12463315,-124.94031765,0
10,10.0,-3.0656465245,-2.192506913,9.255435104,9.9934347305,-46.385294815,-3.066295154,-2.1925355289999997,9.255435102,9.9936412205,-13.327061135,-18.325366965,302.1333333333333,248.26666666666668,382.53333333333336,247.53333333333333,1.0,1.0,1.0,0.0,-0.0030111757948,-0.002873243174,0.0007480193647999,0.004829290836,-0.072184614775,-0.033215409385,0.17032481185,0.1883514477,1.0,0.0,0.0,22.156699335,-125.57357035,-144.42642965,108.32536695,103.32706115,-125.57357035,0
11,11.0,-3.0833025970000003,-2.2020598635,9.247336823,9.9934513295,-42.227733425,-3.0830633095,-2.202110266,9.2473444555,9.9933956705,-13.39413687,-18.440046645,299.3333333333333,247.8,379.8666666666667,247.06666666666663,1.0,0.0,1.0,0.0,-0.0004767037219999,-0.000618078318,0.0008396533231499,0.00168609467505,-0.07435333932,-0.04111692383,0.167378212,0.18773371835,1.0,0.0,0.0,22.280514115,-125.53306875,-144.46693125,108.44004665,103.39413685,-125.53306875,0
12,12.0,-3.082002505,-2.207755611,9.2470065205,9.9940009155,-42.846506845,-3.0819412565,-2.2078578525,9.246986746,9.993986357,-13.42798051,-18.43331243,295.1875,250.875,378.4375,249.3125,1.0,0.0,1.0,0.0,0.00056590617055,-0.00128459068265,-0.002499832728,0.002920498001,-0.07676226504,-0.0433313923199999,0.16706315865,0.18893364215,2.0,0.0,0.0,22.293114405,-125.6146841,-144.3853159,108.43331245,103.4279805,-125.6146841,0
13,13.0,-3.0757670255000003,-2.2130722265,9.247799444,9.993989779,-42.27846703,-3.0762058045,-2.2130531495,9.2478948325,9.9942088325,-13.45838348,-18.39613035,295.8,241.9,378.8,248.1,1.0,1.0,1.0,0.0,0.000220692237895,0.00055809671795,0.00127959056705,0.0021719281067,-0.069529931845,-0.04600195678,0.16870411875,0.18825827655,0.0,0.0,0.0,22.2804353,-125.7371561,-144.2628439,108.39613035,103.45838345,-125.7371561,0
14,14.0,-3.0743601115,-2.2105444895,9.2469886575,9.992262884,-45.84192796,-3.072237761,-2.2104920265,9.247217585,9.991813139,-13.44481376,-18.394804705,292.26666666666665,229.06666666666663,376.4,244.13333333333333,1.0,1.0,1.0,0.0,-0.001042983025255,-0.00296767398485,-0.00171885300305,0.00394090833235,-0.05508190134,-0.0410055539499999,0.171503597,0.18489141115,0.0,0.0,0.0,22.27230371,-125.71133015,-144.28866979999998,108.3948047,103.4448138,-125.71133015,0
15,15.0,-3.080684185,-2.2167636815,9.2492206885,9.9976516075,-46.953530415,-3.0822389855,-2.216882915,9.24905853,9.9980121745,-13.477523145,-18.418232250000003,281.5,226.3571428571429,372.2857142857143,240.6428571428571,0.0,1.0,1.0,0.0,0.0009379420091999,-0.0001421767339999,-0.0022780107311,0.0035781705729999,-0.07734970508,-0.0428417209649999,0.1706135273,0.19257413985,0.0,0.0,0.0,22.307660695,-125.7426696,-144.2573304,108.41823225,103.47752315,-125.7426696,0
16,16.0,-3.0838319965,-2.2087226055,9.2479758965,9.9956761875,-57.20686782999999,-3.0841849275,-2.208555679,9.2477994345,9.9955848535,-13.432553015,-18.440646605,282.15384615384613,225.30769230769232,371.7692307692308,239.3846153846154,0.0,1.0,1.0,0.0,-0.00013901892405,0.0004537967271,-0.000320150263,0.0022222274345,-0.0705610571049999,-0.034323136715,0.1721689250999999,0.18920888125,1.0,0.0,0.0,22.301200385,-125.6127086,-144.38729135,108.4406466,103.432553,-125.6127086,0
17,17.0,-3.0790817415,-2.207196423,9.247498974,9.993434088,-59.855733575,-3.0791389735,-2.2071630375,9.2475657425,9.993506152,-13.424694065,-18.415897005,280.6,225.2,369.9,238.5,0.0,1.0,1.0,0.0,0.0013559840322,-0.002176152784,-0.002844595619,0.0038992545355,-0.07154846878,-0.034469662235,0.17039406135,0.1880182449,0.0,0.0,0.0,22.277936405,-125.6353231,-144.3646769,108.415897,103.42469405,-125.6353231,0
18,18.0,-3.0727146735,-2.2029946505,9.249826399,9.992701229,-59.75817911,-3.0726097485,-2.202985112,9.2498168605,9.9926581225,-13.39605054,-18.376167275,268.77777777777777,238.33333333333337,363.55555555555554,241.33333333333337,0.0,1.0,1.0,0.0,-0.001597896682,0.00119789200345,0.002779873374,0.003751559474,-0.0650094274499999,-0.03491257675,0.17050171655,0.18582331415,0.0,0.0,0.0,22.232090245,-125.638014,-144.361986,108.3761673,103.3960505,-125.638014,0
19,19.0,-3.0811564325,-2.202985112,9.2462636995,9.9919999635,-57.104980535,-3.0811993565,-2.20292788,9.246192161,9.991934418,-13.392008,-18.42762705,266.3333333333333,243.75,360.9166666666667,242.58333333333337,1.0,1.0,0.0,0.0,0.00044138447565,-0.000651466512,-0.0003289163159999,0.004192767025,-0.054990191305,-0.03315314414,0.17259795325,0.18417197865,0.0,0.0,0.0,22.26977473,-125.5481957,-144.4518043,108.427627,103.392008,-125.5481957,0
20,20.0,-3.067158375,-2.2024700255000003,9.249201609499998,9.990298948,-41.81016563,-3.067024833,-2.202555873,9.2492254565,9.9902990055,-13.39425944,-18.346385,265.6666666666667,245.33333333333337,362.6666666666667,244.0,0.0,1.0,0.0,0.0,0.00080743650485,0.0001336885615,0.0013241534255,0.006336027935,-0.0579340774549999,-0.040732919075,0.17004770845,0.18425346415,0.0,0.0,0.0,22.208129415,-125.68140855,-144.31859145,108.346385,103.39425945,-125.68140855,0
21,21.0,-3.077188339,-2.195611741,9.2498502485,9.9924739765,-58.50382751,-3.0772837265,-2.195473431,9.249974249,9.9925876985,-13.353225975,-18.40120306,279.6666666666667,232.33333333333337,371.0,242.66666666666663,0.0,1.0,1.0,0.0,2.1220407500000015e-05,0.001453597907,0.0014833064825,0.0038502730465,-0.043511576245,-0.04359864832,0.17698461565,0.18740292,0.0,0.0,0.0,22.2289201,-125.50839105,-144.49160895,108.40120305,103.353226,-125.50839105,0
22,22.0,-3.0535180950000003,-2.1923542835000003,9.258463677,9.9924989315,-37.737085305,-3.052306686,-2.191343186,9.258787995,9.9922102915,-13.32376667,-18.25564664,302.38461538461536,224.46153846153845,392.38461538461536,232.6153846153846,1.0,1.0,1.0,0.0,0.0065560448955,-0.008211236663,-0.0051523149285,0.0123450628015,-0.04434751158,-0.035100398405,0.17217575995,0.1814545914999999,0.0,0.0,0.0,22.100682365,-125.6770672,-144.3229328,108.25564665,103.32376665,-125.6770672,0
23,23.0,-2.9373039505,-2.1343592675,9.307688027,9.9908899555,-34.751014525,-2.9392879895,-2.1356517554999996,9.307549714,9.991626715,-12.912695825,-17.511024045,311.2857142857143,207.57142857142856,410.2857142857143,230.8571428571429,0.0,1.0,1.0,0.0,-0.002863694015,0.00067056486,-0.001782514255,0.024430836725,-0.046103169283,-0.0468966439349999,0.1813651976,0.1971681921,0.0,0.0,0.0,21.306577525,-126.0064272,-143.99357279999998,107.51102405,102.91269585,-126.0064272,0
24,24.0,-2.9519839185,-2.1419234815,9.304258778,9.993585082,-42.90879959,-2.9507725095,-2.1410983884999997,9.304292164,9.9930804235,-12.966353475,-17.6044984,286.1,210.1,384.3,226.6,0.0,1.0,1.0,0.0,0.005110935138,0.00138038750905,0.006945439332,0.008778955699,-0.038846546115,-0.0349655464499999,0.17714233015,0.18484442125,0.0,0.0,0.0,21.407366095,-125.96531025,-144.03468974999998,107.60449835,102.9663535,-125.96531025,0
25,25.0,-2.9308319765000004,-2.1054667755,9.3214094685,9.9955713175,-47.431023284999995,-2.9302215035,-2.105361849,9.3215573185,9.995508131,-12.728088725,-17.45515501,286.46666666666664,212.86666666666667,382.4,233.26666666666668,0.0,1.0,1.0,0.0,-0.0005421814132,0.0030281521655,0.0029252331754999,0.009399639904,-0.024643577695,-0.035286010495,0.18455037205,0.1896022426999999,0.0,0.0,0.0,21.164293195,-125.69134305,-144.30865695,107.455155,102.7280887,-125.69134305,0
26,26.0,-2.96915825,-2.1159640465000003,9.306543297,9.9952642955,-45.543058724999995,-2.969182097,-2.1163694399999997,9.3064479085,9.9952675225,-12.80848245,-17.69468641,283.0,212.26666666666668,378.0,230.66666666666663,0.0,1.0,1.0,0.0,-0.0048955480165,-0.0002832924495,-0.002554937063,0.006893349658,-0.0478670763449999,-0.037975746005,0.1779427223,0.1881775678,0.0,0.0,0.0,21.393138175,-125.4734672,-144.52653275,107.6946864,102.80848245,-125.4734672,0
27,27.0,-2.960516244,-2.1482666740000003,9.2981874265,9.9917991305,-44.904460435,-2.9599677705,-2.1486720664999996,9.2982971245,9.991826411,-13.008629605,-17.662483635,283.38461538461536,226.3846153846154,377.9230769230769,232.23076923076923,1.0,0.0,1.0,0.0,-0.00086473158574,-0.0034345229625,-3.7135723305e-05,0.0036611649285,-0.061503556435,-0.037687872685,0.17173775015,0.18682543615,0.0,0.0,0.0,21.47471887,-125.9624951,-144.0375049,107.66248365,103.0086296,-125.9624951,0
28,28.0,-2.999281303,-2.1308109645,9.291257587,9.993182226,-50.683112765,-3.0004116335,-2.130310186,9.290952346,9.993129942,-12.97870609,-17.83917178,283.2,213.8,374.1,229.3,0.0,1.0,1.0,0.0,0.002388356851,0.0024753605195,0.0012636752548,0.0039157559739999,-0.078779141195,-0.032821835935,0.1687705357,0.1892022895,0.0,0.0,0.0,21.59550474,-125.6090452,-144.3909548,107.8391718,102.9787061,-125.6090452,0
29,29.0,-3.024429949,-2.124315153,9.286998538,9.9954150305,-46.81083662,-3.023852861,-2.1244725405,9.2873228555,9.9955741855,-12.883925965,-18.039697475,283.1333333333333,214.6,375.26666666666665,232.06666666666663,0.0,1.0,1.0,0.0,-0.00279897174415,-0.002339549926,0.0002143261215,0.005289245466,-0.076852563485,-0.0363432201599999,0.1696045534,0.1899510020499999,0.0,0.0,0.0,21.701751175,-125.0811497,-144.9188503,108.0396975,102.88392595,-125.0811497,0
30,30.0,-3.0145669765000003,-2.1474177479999996,9.284685382,9.995218882,-38.921822785,-3.01510591,-2.147436825,9.284461219,9.995177273,-13.02267336,-17.986522094999998,284.73333333333335,214.53333333333333,380.3333333333333,234.93333333333337,0.0,1.0,1.0,0.0,-0.0001506648904,-0.0020700507514999,-0.0017071817815,0.0051280330515,-0.076929831285,-0.038908760395,0.1698900696,0.1905194133,0.0,0.0,0.0,21.733137919999997,-125.46578315,-144.53421685,107.98652205,103.02267335,-125.46578315,0
31,31.0,-3.025197769,-2.1475799044999997,9.283335642,9.9972119155,-37.042962450000005,-3.025278848,-2.14761329,9.2832354875,9.9971505945,-13.02535852,-18.049248195,284.8,215.7,380.0,234.2,0.0,1.0,1.0,0.0,-0.00021857019715,-9.867489485e-05,-0.00011671224117,0.0005724179626,-0.07444900809,-0.03932983044,0.17270568495,0.1921439102,0.0,0.0,0.0,21.783310805,-125.370834,-144.62916595000002,108.0492482,103.02535855,-125.370834,0
32,32.0,-3.0123471564999997,-2.1547716215,9.2863629985,9.9976926015,-52.266711685,-3.0124636805,-2.155029585,9.2864977245,9.9979084465,-13.06321515,-17.9722578,287.0,217.0,380.0,232.0,0.0,1.0,1.0,0.0,0.0003236112142265,-0.001061020375185,-0.001392058736,0.0034851562844999,-0.068242384005,-0.04454691075,0.17429970735,0.19245706665,0.0,0.0,0.0,21.743503435,-125.57603375,-144.42396624999998,107.97225775,103.06321515,-125.57603375,0
33,33.0,-3.0208576865000003,-2.1594221300000003,9.282887328,9.9980356825,-49.134981645,-3.020852917,-2.1591025855000003,9.2826774755,9.9977704355,-13.095733,-18.02584324,-1.0,-1.0,-1.0,-1.0,0.0,0.0,0.0,0.0,0.0002588889714,0.00147587933985,0.0018355652431,0.0027003900344999,-0.059993318595,-0.0522686637049999,0.17405529205,0.19139584365,0.0,0.0,0.0,21.802241754999997,-125.55954415,-144.4404558,108.02584325,103.095733,-125.55954415,0
34,34.0,-3.0211629240000004,-2.1672390475,9.280698235,9.9977914495,-44.901545555,-3.0208815345,-2.166967196,9.280717314,9.997665109,-13.144635435,-18.031942255,292.0,224.0,389.0,243.0,0.0,0.0,1.0,0.0,0.0010758746577,-0.00258782868038,-0.00351516050145,0.004874565376,-0.06591515305,-0.052450971245,0.1716239949,0.19119341855,0.0,0.0,0.0,21.83292483,-125.6545216,-144.3454784,108.03194225,103.1446354,-125.6545216,0
35,35.0,-3.0131838525,-2.1650546985,9.2825487375,9.996622016,-44.93756544,-3.013455704,-2.1653837815,9.282439044,9.996673347,-13.13623201,-17.98777594,-1.0,-1.0,-1.0,-1.0,0.0,0.0,0.0,0.0,0.000268438154765,0.0002482787667,0.00115757322785,0.0020433903542,-0.06750165278,-0.04705130654,0.1705107086,0.18932945625,0.0,0.0,0.0,21.79418526,-125.707563,-144.292437,107.9877759,103.136232,-125.707563,0
36,36.0,-3.0222550975,-2.1628131175,9.2800591115,9.9965639875,-54.4379669,-3.0220595555000003,-2.162975274,9.280321423,9.996783509,-13.119037025,-18.039296890000003,-1.0,-1.0,-1.0,-1.0,0.0,0.0,0.0,0.0,0.00058886630785,-0.0027289443975,-0.0033475192695,0.004394244622,-0.07789285278,-0.042473028765,0.17100032435,0.19265114735,0.0,0.0,0.0,21.82498236,-125.5877625,-144.4122375,108.0392969,103.119037,-125.5877625,0
37,37.0,-3.0075798955,-2.1635142075,9.285581999,9.997419153,-45.205735155,-3.0074654315,-2.1632137405,9.285419842,9.9971691945,-13.116122605,-17.947338015,283.75,263.0,382.5,256.5,1.0,0.0,0.0,0.0,0.00105041017095,0.00122441751005,0.00155227280305,0.00232900584295,-0.06676943113,-0.0458416628699999,0.1752800269,0.1930975906499999,0.0,0.0,0.0,21.752238705,-125.7297736,-144.2702264,107.947338,103.1161226,-125.7297736,0
38,38.0,-3.0223791010000003,-2.1555875955,9.284780772,9.9994243675,-45.03686171,-3.022741569,-2.1556209805,9.2847998475,9.999558883,-13.07043798,-18.030434325,283.3333333333333,261.1666666666667,382.8333333333333,248.5,0.0,0.0,1.0,0.0,-0.0003777232533,-3.607468899999994e-05,0.00015596999506,0.001621873922,-0.060052257865,-0.04139470993,0.1765917125,0.1910632446,0.0,0.0,0.0,21.792436875,-125.49784515,-144.50215485,108.0304343,103.070438,-125.49784515,0
39,39.0,-2.991430363,-2.1513241274999997,9.294550143,9.9982796755,-42.258790015,-2.991063735,-2.151428747,9.294829722,9.9984522635,-13.032024455,-17.8413507,284.1666666666667,260.75,384.0833333333333,249.66666666666663,0.0,1.0,1.0,0.0,0.00038939447765,-0.0020414031985,-0.00163397137585,0.003792886677,-0.0562089512049999,-0.038160100805,0.17944807075,0.19189932845,0.0,0.0,0.0,21.625544925,-125.7208432,-144.27915675,107.8413507,103.03202445,-125.7208432,0
40,40.0,-2.9937965565,-2.1468978915,9.2940475625,9.997567487,-49.1657163,-2.9938871735,-2.146936046,9.293956945,9.997518589,-13.00717464,-17.854598705,285.3333333333333,262.73333333333335,385.93333333333334,252.73333333333332,0.0,1.0,1.0,0.0,0.0001198953035,0.0030865082655,0.0022451191103,0.00451451723,-0.044905101495,-0.0405760625049999,0.18158179335,0.191418958,0.0,0.0,0.0,21.622582035,-125.6456272,-144.35437280000002,107.8545987,103.0071746,-125.6456272,0
41,41.0,-3.0022859485,-2.1486959260000003,9.2911621225,9.9978157625,-52.287128315,-3.002123792,-2.1486768485,9.2910619675,9.9976699835,-13.02124719,-17.907559235,285.3333333333333,264.4,386.6,254.06666666666663,0.0,1.0,1.0,0.0,0.0003458926420499,-0.0015437846375,-0.0013050550588,0.0039276449335,-0.04390046923,-0.044250078155,0.1807646205499999,0.1912237380499999,0.0,0.0,0.0,21.67109407,-125.59011755,-144.40988245,107.9075592,103.0212472,-125.59011755,0
42,42.0,-2.987820597,-2.1542903395,9.2953925,9.998618545,-37.74647426,-2.987911214,-2.1542760320000003,9.2953114205,9.998567104,-13.03766566,-17.83583138,286.26666666666665,265.06666666666666,387.26666666666665,255.46666666666667,0.0,1.0,1.0,0.0,-3.289163160000001e-05,0.00197668095405,0.00222602074265,0.00354298007415,-0.0460538045749999,-0.04800862822,0.1803303085499999,0.19229901815,0.0,0.0,0.0,21.6242237,-125.7418328,-144.2581672,107.8358314,103.0376657,-125.7418328,0
43,43.0,-3.000359143,-2.1487626965,9.290689955,9.9968126375,-41.818445755,-3.000416375,-2.1490011625000003,9.2908044205,9.99698742,-13.022271365,-17.897536764999998,284.8666666666667,265.26666666666665,386.53333333333336,256.8666666666667,1.0,1.0,1.0,0.0,-0.00021008203415,0.00160850688598,0.0007448363039999,0.0029545168595,-0.04225818498,-0.045652382295,0.18234830255,0.1927644558,0.0,0.0,0.0,21.66385875,-125.60853155,-144.39146845,107.89753675,103.02227135,-125.60853155,0
44,44.0,-2.9932003915,-2.1532458585,9.293456180500002,9.9982071965,-44.4650923,-2.992981003,-2.153179088,9.293546796,9.9982117205,-13.045227385,-17.85264452,284.0,265.8666666666667,385.26666666666665,256.93333333333334,1.0,1.0,1.0,0.0,0.00046260488329,-0.0017103648397499,-0.0028085209182,0.0038753551302,-0.05041170505,-0.044045542515,0.1796215734,0.19172207465,0.0,0.0,0.0,21.64132987,-125.7309721,-144.26902785,107.8526445,103.0452274,-125.7309721,0
45,45.0,-2.9941351784999997,-2.15007426,9.2932033725,9.9975665995,-37.40361522,-2.994321182,-2.149811947,9.2931127565,9.997481622,-13.02692248,-17.85819401,287.0,266.93333333333334,387.8666666666667,257.8,1.0,1.0,1.0,0.0,-0.000109285098585,0.0020382201317,0.002893402552,0.0035575120735,-0.043695282555,-0.043403262095,0.181135093,0.1913333472,0.0,0.0,0.0,21.635860205,-125.68239755,-144.31760244999998,107.85819405,103.0269225,-125.68239755,0
46,46.0,-3.0000579885,-2.1484443535000004,9.2911453615,9.9970776495,-61.973970915,-2.999867311,-2.148582683,9.2911976895,9.997098914,-13.01981287,-17.894775995,287.0,267.53333333333336,388.0,258.0,1.0,1.0,1.0,0.0,-0.00029036307975,-0.0009213985815,-0.00207943865815,0.0023209990575,-0.051994039015,-0.03949718159,0.1793542304499999,0.1908984292,0.0,0.0,0.0,21.660420355,-125.60772365,-144.39227635,107.894776,103.01981285,-125.60772365,0
47,47.0,-2.995858239,-2.15210683,9.29296657,9.99829818,-63.762981874999994,-2.9960810615,-2.152201377,9.292936295,9.998357138,-13.038956825,-17.8682362,285.64285714285717,268.14285714285717,387.07142857142856,259.57142857142856,1.0,1.0,1.0,0.0,0.0006620767136499,0.00039469957835,0.001543784645,0.0017470858529999,-0.05361077602,-0.04381295901,0.1780149899999999,0.1910205040499999,0.0,0.0,0.0,21.65000693,-125.6919921,-144.3080079,107.8682362,103.0389568,-125.6919921,0
48,48.0,-2.9942591810000003,-2.1522395315,9.293122303,9.9979938115,-59.73656414,-2.994187641,-2.1518675245,9.2929982985,9.997777326,-13.03026361,-17.89187389,283.6,265.4,386.1333333333333,256.6,1.0,1.0,0.0,0.0,0.0002291804009,-0.0011968309807,-0.0020753558522999,0.00242933447715,-0.052184325965,-0.049353040915,0.1791475599999999,0.19302624675,0.0,0.0,0.0,21.66370349,-125.6349216,-144.3650783,107.8918739,103.0302636,-125.6349216,0
49,49.0,-2.9788256565,-2.157376091,9.2973145525,9.9983865285,-61.517377775,-2.9784345720000003,-2.1578196380000003,9.2975482505,9.998583138,-13.06388432,-17.76526895,283.0,263.0,390.0,252.0,0.0,1.0,0.0,0.0,0.00056340181888,0.001195769961,0.00129550587615,0.0019294631865,-0.04404421765,-0.050574558305,0.18027070935,0.1923543859,0.0,0.0,0.0,21.583650125,-125.9134467,-144.0865533,107.76526895,103.06388435,-125.9134467,0
50,50.0,-2.9782485684999997,-2.1593601285000004,9.2980395085,9.9993171495,-61.87382518,-2.9782151835,-2.1592218185,9.2980013535,9.999241713,-13.07450229,-17.76074482,286.5,225.83333333333337,384.8333333333333,227.33333333333337,1.0,1.0,0.0,0.0,-2.01593871e-05,0.0011013391494,0.0017782701465,0.0021025706945,-0.04255160978,-0.05039303149,0.1825899001,0.1941593153,0.0,0.0,0.0,21.58583707,-125.94375905,-144.05624095,107.76074485,103.0745023,-125.94375905,0
51,51.0,-2.980575997,-2.1422382635000004,9.3025513665,10.000536602,-57.82530192,-2.9797699815,-2.1416134820000003,9.3025465965,10.000161433,-12.96830356,-17.76569543,285.3333333333333,226.66666666666663,381.3333333333333,226.6,1.0,0.0,0.0,0.0,0.0023406109342499,-0.00029920774375,0.008577288707,0.0089436094395,-0.04817845621,-0.0463465089,0.18327246535,0.19523450255,0.0,0.0,0.0,21.533015555,-125.7057589,-144.29424104999998,107.7656954,102.96830355,-125.7057589,0
52,52.0,-3.0098103839999997,-2.1093034865,9.2998105325,9.9997373175,-45.9111698,-3.0133112975,-2.109265733,9.299444192,10.0004416045,-12.779123475,-17.933773775,282.53846153846155,224.3846153846154,377.61538461538464,228.23076923076923,1.0,1.0,1.0,0.0,0.0018761429251,0.0045813204389999,-0.0035711653816,0.0063712748705,-0.057888503115,-0.044029980485,0.1778466113,0.19290979735,0.0,0.0,0.0,21.564292285,-125.0234,-144.97660000000002,107.9337738,102.77912345,-125.0234,0
53,53.0,-3.022503129,-2.1165649925,9.2951064335,10.00072145,-50.630525295,-3.01994677,-2.1168845375,9.2955833675,10.000460165,-12.827953765,-18.013049265,283.3636363636364,210.45454545454547,378.54545454545456,226.1818181818182,0.0,1.0,1.0,0.0,-0.0034440721185,0.0006620767146,0.003149108464,0.0047289710949999,-0.055281469715,-0.042480435725,0.1802877913,0.1933107664,0.0,0.0,0.0,21.65171917,-125.00230325,-144.99769675,108.01304925,102.82795375,-125.00230325,0
54,54.0,-3.0082476005,-2.146578347,9.2903608595,9.998409733,-52.49966754,-3.0088103805,-2.1466021934999997,9.289974541,9.998225043,-12.98909231,-17.97155362,283.72727272727275,211.8181818181818,378.90909090909093,228.9090909090909,0.0,1.0,1.0,0.0,-0.00061645283745,-0.0006716258945,-0.000914599565,0.0045985643905,-0.051440184075,-0.04775255824,0.1805272859,0.19372146995,0.0,0.0,0.0,21.70380135,-125.417517,-144.5824829,107.9715536,102.9890923,-125.417517,0
55,55.0,-3.014824495,-2.145138012,9.2889873005,9.9988035615,-50.615531265,-3.0147863399999997,-2.1453621700000003,9.2892162295,9.999052703,-13.00355037,-17.98130508,285.5,213.1428571428571,381.2142857142857,229.3571428571429,0.0,1.0,1.0,0.0,-0.000332099377235,0.00093263690905,0.0004901914125,0.0025057599735,-0.0491829831149999,-0.04396898486,0.17985658345,0.1915875657,0.0,0.0,0.0,21.71900354,-125.432998,-144.567002,107.9813051,103.00355035,-125.432998,0
56,56.0,-3.0202138285,-2.146635579,9.2867123405,9.9986381885,-51.80952611,-3.020099364,-2.1466880415,9.28664557,9.9985528065,-13.015398115,-18.015501725,287.2142857142857,214.0,382.7857142857143,232.42857142857144,0.0,0.0,1.0,0.0,0.000188861626655,0.000108224077255,-0.00092520976655,0.00098718937515,-0.055995705585,-0.0419785307699999,0.17820434845,0.1914554834,0.0,0.0,0.0,21.751829615,-125.40354295,-144.59645705,108.0155017,103.01539815,-125.40354295,0
57,57.0,-3.011786437,-2.1525638455,9.288820356,9.999328679,-57.8231377,-3.011786437,-2.1525399985,9.288806047,9.9993102565,-13.04725385,-17.96465301,288.73333333333335,214.66666666666663,384.06666666666666,233.53333333333333,0.0,0.0,1.0,0.0,0.0010334338445,0.0002832924389999,0.0008817079255,0.0051281733135,-0.053383889135,-0.05167245316,0.178263952,0.1931412402,0.0,0.0,0.0,21.729140345,-125.55389965,-144.4461003,107.964653,103.04725385,-125.55389965,0
58,58.0,-3.01384526,-2.1541856079999997,9.289191998,10.000647725,-43.313694510000005,-3.0112111610000003,-2.1559666440000003,9.289977452,10.000971148,-13.05622385,-17.975472925,289.0,214.33333333333337,383.6666666666667,233.44444444444449,0.0,0.0,1.0,0.0,-0.00533735264665,-0.001237879734,-0.006197810441,0.0119741676425,-0.0573278306,-0.059231976285,0.1785391841,0.1970222805499999,0.0,0.0,0.0,21.7423483,-125.55577135,-144.44422865,107.9754729,103.05622385,-125.55577135,0
59,59.0,-2.954283784,-2.2186784915,9.2888046775,9.9966394565,-43.68098296,-2.9560484165,-2.2178922975,9.2884089405,9.9966345015,-13.433703090000002,-17.64318597,333.6666666666667,276.0,446.6666666666667,274.6666666666667,1.0,0.0,1.0,0.0,0.00133103732365,-0.005976184513,-0.001156151474,0.007136342752,-0.042820104885,-0.040841519415,0.18061831365,0.1918326672499999,0.0,0.0,0.0,21.690421895,-126.9076991,-143.0923009,107.64318595,103.43370305,-126.9076991,0
60,60.0,-2.9075131215,-2.2159910135,9.3012656495,9.9939096385,-45.32974579,-2.907715493,-2.2158097985,9.3012949885,9.9939543465,-13.36519313,-17.4742004,306.8,230.6,410.6,239.4,1.0,0.0,1.0,0.0,-0.0007910416245,-0.00113017342455,-0.0007542327002,0.002739081277,-0.05625021589,-0.04333896272,0.17516769915,0.1892990689499999,0.0,0.0,0.0,21.52427013,-127.0429323,-142.9570677,107.4742004,103.3651931,-127.0429323,0
61,61.0,-2.9696876595,-2.193236619,9.2920922245,9.9986596855,-49.02113927,-2.9693728845000003,-2.1926261460000003,9.291891909,9.9982487915,-13.28060604,-17.72337178,-1.0,-1.0,-1.0,-1.0,0.0,0.0,0.0,0.0,0.0015724321895,0.003000565605,0.0025920727805,0.0095083515855,-0.06236142591,-0.03945764555,0.17861494955,0.19326744015,0.0,0.0,0.0,21.66827208,-126.4492635,-143.55073645,107.72337175,103.280606,-126.4492635,0
62,62.0,-2.975763752,-2.1894307,9.2925071035,9.999973847500002,-46.09163472,-2.9763313015,-2.1899791725,9.2923926395,10.00015612,-13.257804305,-17.75676136,-1.0,-1.0,-1.0,-1.0,0.0,0.0,0.0,0.0,0.00068435814045,0.0002472177379999,-0.00142919444365,0.0036892754275,-0.06406891346,-0.039954140075,0.1769259846499999,0.19244221525,0.0,0.0,0.0,21.681301135,-126.34393745,-143.65606250000002,107.75676135,103.2578043,-126.34393745,0
63,63.0,-2.9748194420000003,-2.2209177650000003,9.285834818,10.000484717,-43.477951360000006,-2.9751246785000003,-2.220912996,9.2867886855,10.001458025,-13.450961025,-17.76346834,-1.0,-1.0,-1.0,-1.0,0.0,0.0,0.0,0.0,-0.002248302159,-0.002717273173,-0.0032923462145,0.004981460001,-0.057251915395,-0.044514683285,0.1740602154,0.1886275077999999,0.0,0.0,0.0,21.79152131,-126.7422477,-143.2577523,107.7634683,103.45096105,-126.7422477,0
64,64.0,-2.9694491574999997,-2.211689118,9.285109881,9.996172476,-50.30168439,-2.9695302354999997,-2.2115746539999996,9.283860315,9.995011436,-13.398044195,-17.734627455000002,324.93333333333334,278.1333333333333,435.2,269.73333333333335,1.0,1.0,1.0,0.0,0.00047745916945,0.004331085163,0.0051459487959999,0.006818730324,-0.07779204745,-0.0471515532849999,0.17366893935,0.19607383525,0.0,0.0,0.0,21.74068625,-126.68119645,-143.3188035,107.73462745,103.3980442,-126.68119645,0
65,65.0,-3.0045704545,-2.215571352,9.2766395395,9.999612268,-52.725261880000005,-3.0048089205,-2.215661969,9.2767778485,9.999832415499998,-13.432514025,-17.946395369999998,323.93333333333334,279.3333333333333,433.0,270.6666666666667,1.0,1.0,1.0,0.0,0.0012371497555,-0.00129126179185,-2.334244899999992e-05,0.0030144631355,-0.0731852779649999,-0.04892108709,0.17190311585,0.1931354666,0.0,0.0,0.0,21.920932375,-126.40507145,-143.59492855000002,107.9463954,103.432514,-126.40507145,0
66,66.0,-3.017824398,-2.2086033725,9.2715506555,9.997344385,-49.03624358,-3.0179007075,-2.2085842955,9.271221575,9.9970574195,-13.36982489,-17.99728433,323.3333333333333,281.93333333333334,433.3333333333333,273.73333333333335,1.0,1.0,1.0,0.0,-0.0011947089407,0.0017665989179,-0.0002281193804999,0.0021480891565,-0.068411275755,-0.0428154456,0.1729475514,0.19085604235,0.0,0.0,0.0,21.92618949,-126.1896866,-143.8103134,107.9972843,103.3698249,-126.1896866,0
67,67.0,-3.0236000465,-2.213267769,9.267968894,9.9967977115,-52.970150335,-3.023394966,-2.2133106925,9.268178740500002,9.9969396355,-13.431153415,-18.06849749,326.73333333333335,283.6,435.53333333333336,275.46666666666664,1.0,1.0,1.0,0.0,8.594265035000002e-05,-0.0002737432558499,-0.00065995467302,0.0012503709892,-0.06638518023,-0.043660812905,0.1733648133499999,0.1907704946,0.0,0.0,0.0,22.013774035,-126.2040371,-143.7959629,108.0684975,103.4311534,-126.2040371,0
68,68.0,-3.0173739834999997,-2.216944248,9.2698635535,9.997488439,-47.30046415,-3.0172771855,-2.216847946,9.2699401295,9.99750878,-13.450002365,-18.030256029999997,327.2,287.73333333333335,437.2,278.26666666666665,0.0,1.0,1.0,0.0,0.00053437654545,0.0007469074165,0.00165163099865,0.002900927216,-0.063275206805,-0.0491303825949999,0.1735967454,0.19123346305,0.0,0.0,0.0,21.994587825,-126.3057208,-143.6942792,108.03025605,103.4500024,-126.3057208,0
69,69.0,-3.0271198139999997,-2.2144600995,9.267573058,9.9977598885,-50.72239136,-3.0275585915,-2.214469638,9.2673345925,9.997673727,-13.43868116,-18.088884649999997,329.26666666666665,291.1333333333333,440.2,283.06666666666666,0.0,1.0,1.0,0.0,0.000549608554,0.000350136724495,0.0003671130497,0.001418773799,-0.05710245044,-0.052364786425,0.17545826375,0.1918034937,0.0,0.0,0.0,22.03345404,-126.18697955,-143.81302045,108.08888465,103.43868115,-126.18697955,0
70,70.0,-3.029704778,-2.213592083,9.2683647355,9.999085049,-51.64088378,-3.0296570845,-2.21361116,9.2685602785,9.9992562435,-13.43249914,-18.101878545,327.53333333333336,293.0,438.53333333333336,284.8666666666667,1.0,1.0,1.0,0.0,0.0006440393664,-0.00131884832445,-0.0016679240286,0.0023075034225,-0.06437856922,-0.053103439855,0.1742771453,0.19324482225,0.0,0.0,0.0,22.040115995,-126.15299205,-143.84700794999998,108.1018785,103.4324991,-126.15299205,0
71,71.0,-3.022390585,-2.21637048,9.270298313,9.9992798745,-36.260349865,-3.0225615935,-2.216417753,9.270192396,9.9992438915,-13.446037555,-18.057495925,327.73333333333335,293.3333333333333,439.2,285.4,1.0,1.0,0.0,0.0,0.0002131802136149,0.0014341515286,0.001695752469,0.002262534555,-0.056020817705,-0.052039338335,0.17628201415,0.1921563999,0.0,0.0,0.0,22.013342325,-126.2532158,-143.74678419999998,108.0574959,103.44603755,-126.2532158,0
72,72.0,-3.032763935,-2.2144737584999996,9.2667670745,9.998726199,-56.46364567,-3.032808347,-2.2144593935000003,9.2668398725,9.9988041445,-13.44140969,-18.11288067,329.46666666666664,294.26666666666665,440.6666666666667,286.3333333333333,1.0,1.0,1.0,0.0,-0.00014544467292,0.0004570748451,0.0005736470316,0.0007593611889,-0.05606051375,-0.051585403525,0.17779293905,0.19342863135,0.0,0.0,0.0,22.05333693,-126.1540106,-143.8459894,108.1128807,103.4414097,-126.1540106,0
73,73.0,-3.030001574,-2.216261243,9.2691066615,10.000455365,-45.36343071,-3.0297688884999996,-2.216523804,9.269245242,10.000572005,-13.44707051,-18.102181435,329.0,294.6666666666667,440.6,286.6,1.0,1.0,1.0,0.0,0.00092649147745,-0.0017325146966999,-0.00206073923295,0.0031485619235,-0.059090064165,-0.05413667931,0.1758722599,0.1932710295499999,0.0,0.0,0.0,22.04816762,-126.183272,-143.816728,108.1021814,103.4470705,-126.183272,0
74,74.0,-3.0189785735,-2.216963993,9.271259724,9.9992721235,-56.26991094,-3.0188545715000004,-2.216591986,9.2709592535,9.998873671,-13.44816746,-18.036679215,328.26666666666665,294.0,439.26666666666665,285.6666666666667,1.0,1.0,1.0,0.0,0.0002217532583,0.0025061301049999,0.0026811984854999,0.003708097401,-0.0424582845,-0.05332182672,0.1813693281,0.19375610255,0.0,0.0,0.0,21.99852629,-126.29145895,-143.70854105,108.0366792,103.4481675,-126.29145895,0
75,75.0,-3.0212916955,-2.2135396199999997,9.271841608,9.9997505005,-61.715270105,-3.0215492394999997,-2.213739932,9.272223153,10.000226455,-13.42733685,-18.04854705,325.8666666666667,292.06666666666666,436.6,283.6666666666667,1.0,1.0,1.0,0.0,0.00038833345707,2.8647550999999992e-05,0.00100796935505,0.002139685945,-0.04027940406,-0.04999954583,0.1836741244,0.1945727858,0.0,0.0,0.0,21.99641431,-126.22825165,-143.7717483,108.04854705,103.42733685,-126.22825165,0
76,76.0,-3.00881515,-2.2140022445,9.2761292175,10.000072475,-56.16277573,-3.0083286795,-2.214588871,9.276091065,10.000020044,-13.42405303,-17.971037315,320.6,288.1333333333333,430.93333333333334,279.06666666666666,1.0,1.0,1.0,0.0,-0.0002408516258999,-0.0004710930414999,-0.0027215172635,0.003763832752,-0.04863687083,-0.047422405455,0.17984498145,0.1922745351499999,0.0,0.0,0.0,21.93529233,-126.3472436,-143.6527564,107.97103735,103.42405305,-126.3472436,0
77,77.0,-3.0012271595,-2.2114077335,9.278075102,9.99901916,-49.30306277,-3.0010650025,-2.210511101,9.2777984815,9.9985151435,-13.406184695,-17.925107025,319.06666666666666,286.6,429.53333333333336,277.46666666666664,0.0,1.0,1.0,0.0,0.0003756012135499,0.00087321976645,0.002974040105,0.0034919704159999,-0.043147537355,-0.0438266937799999,0.18291752865,0.1930122625,0.0,0.0,0.0,21.890431395,-126.38404845,-143.61595154999998,107.925107,103.4061847,-126.38404845,0
78,78.0,-3.0082476005,-2.2058705515,9.2747985525,9.99686574,-42.77463653,-3.0087817645,-2.2062854825,9.274951171,9.997259954,-13.378380685,-17.97028519,320.53333333333336,286.93333333333334,431.2,278.2,0.0,1.0,1.0,0.0,-0.0005241440642499,0.0013909977017,-5.411204100000001e-05,0.0023258503288,-0.03998148543,-0.04197110146,0.18309713105,0.19205750665,0.0,0.0,0.0,21.910064284999997,-126.2516531,-143.7483469,107.9702852,103.37838065,-126.2516531,0
79,79.0,-2.9892704705,-2.209333077,9.2818667065,9.9985042915,-56.383177195,-2.9879112140000004,-2.2090039944999997,9.282176711,9.998313443,-13.39512849,-17.92285878,319.4,283.8666666666667,428.3333333333333,274.2,1.0,1.0,1.0,0.0,0.00114696302925,-0.0032626376469999,-0.00239153992305,0.004457975497,-0.056227875545,-0.041518892295,0.1783406983,0.19168502655,0.0,0.0,0.0,21.88273119,-126.3643186,-143.6356814,107.9228588,103.3951285,-126.3643186,0
80,80.0,-3.0046801655,-2.2083505985,9.276849403,9.9982430175,-46.02250338,-3.0058581885,-2.2086462965,9.2765203185,9.998356718,-13.390026315,-17.94663103,321.0,282.93333333333334,427.6666666666667,274.1333333333333,1.0,1.0,1.0,0.0,5.411203540000003e-05,0.00159259158285,-3.1830620499999986e-06,0.0024774505635,-0.05889284232,-0.043655929115,0.1762152702,0.1910705423,0.0,0.0,0.0,21.8981956,-126.31479605,-143.68520395000002,107.94663105,103.3900263,-126.31479605,0
81,81.0,-3.01719963,-2.2135396204999997,9.2698623005,9.9966797915,-48.81138506,-3.0171805525,-2.213339309,9.269619066,9.9964041325,-13.430101875,-18.02928556,321.26666666666665,283.06666666666666,429.46666666666664,273.93333333333334,1.0,1.0,1.0,0.0,0.0003745401932499,-0.0007310430369999,-0.0016360934148,0.003068847454,-0.06857519763,-0.045604343655,0.17302269695,0.1916615351,0.0,0.0,0.0,21.98312615,-126.26528095,-143.73471905,108.02928555,103.43010185,-126.26528095,0
82,82.0,-3.0083096065,-2.21565243,9.273882839,9.9981983405,-47.553893745,-3.008724539,-2.2157764325,9.2732342115,9.997748857,-13.43683739,-17.972291634999998,315.8,284.26666666666665,424.3333333333333,274.8,1.0,1.0,1.0,0.0,0.001892860349,-0.00110558323375,0.00120107506,0.004941161628,-0.069649746495,-0.05214835614,0.1701408254,0.1911032216,0.0,0.0,0.0,21.94309676,-126.37200125,-143.62799875000002,107.97229165,103.4368374,-126.37200125,0
83,83.0,-3.012840477,-2.202908803,9.274169069,9.9970210445,-34.532974815,-3.0127021650000003,-2.2026989525,9.274841544,9.997553523,-13.361940085,-17.997097065,317.6666666666667,284.53333333333336,427.2,275.53333333333336,0.0,1.0,1.0,0.0,-0.00183450420815,0.003071654,0.0027024188975,0.0069483651735,-0.06361159635,-0.048281122765,0.17411411375,0.1916650563,0.0,0.0,0.0,21.921850515000003,-126.17362425,-143.82637575,107.9970971,103.36194005,-126.17362425,0
84,84.0,-3.036720463,-2.2136302375000003,9.265722539,9.9987728115,-39.01244572,-3.036591691,-2.2139545515,9.2659514665,9.999017869,-13.436412815,-18.14588453,317.8666666666667,284.73333333333335,426.6666666666667,275.26666666666665,1.0,1.0,1.0,0.0,-0.00108224077895,0.0002196312155,-0.00143768260255,0.0030379089965,-0.0544637852,-0.04185085764,0.1797110537,0.1923933537,0.0,0.0,0.0,22.076019754999997,-126.0903648,-143.90963520000005,108.14588455,103.4364128,-126.0903648,0
85,85.0,-3.010861189,-2.2159433585,9.274851020500002,9.9999314795,-45.83985384499999,-3.01015056,-2.2149608780000003,9.274569629,9.9992396945,-13.47657988,-18.02231451,318.0,284.8666666666667,427.46666666666664,275.73333333333335,1.0,1.0,0.0,0.0,0.00035968590885,-0.0019299960555,0.0022122274769,0.003263899001,-0.047767771395,-0.03791265104,0.1827751775,0.19272010325,0.0,0.0,0.0,22.00280874,-126.3746104,-143.6253895,108.0223145,103.4765799,-126.3746104,0
86,86.0,-3.023333018,-2.203862668,9.2723471575,9.998726704,-47.506846405,-3.024210573,-2.2050740755,9.2729433255,9.99981003,-13.370079195,-18.05905655,320.92857142857144,285.0,429.5,276.35714285714283,1.0,1.0,1.0,0.0,-0.00272363928535,0.005652055497,0.00278836155137,0.0084501367725,-0.04219523937,-0.03646721763,0.18169164655,0.19026310625,0.0,0.0,0.0,21.97381299,-126.09094225,-143.9090577,108.05905655,103.3700792,-126.09094225,0
87,87.0,-3.0245463065,-2.208635384,9.2699278395,9.9978999935,-42.005662025,-3.0234474555,-2.2085032169999996,9.2697335565,9.997356517,-13.40135948,-18.070225825,304.3333333333333,227.16666666666663,405.5,239.16666666666663,1.0,0.0,1.0,0.0,0.002561303172945,-0.0067056487625,-0.0031883662105,0.0079950662085,-0.050369800085,-0.0354384165,0.18187236785,0.1920871588,0.0,0.0,0.0,21.999105185,-126.1387322,-143.8612678,108.0702258,103.40135945,-126.1387322,0
88,88.0,-2.903384485,-2.1972333035,9.3137116715,10.0002280225,-30.5956075,-2.9001842665,-2.1965322135000003,9.3147084685,10.000090613,-13.274114195,-17.313930145,284.6,202.6,397.0,224.8,0.0,1.0,1.0,0.0,0.0063523289695,-0.0073581763455,-0.021064437515,0.02338209101,-0.05350348588,-0.0381633375549999,0.1802290416,0.1926807639,0.0,0.0,0.0,21.353135065,-127.1215064,-142.87849355,107.31393015,103.2741142,-127.1215064,0
89,89.0,-2.8910128669999997,-2.1786949580000003,9.3179420855,9.9964591505,-46.42146959,-2.894008005,-2.178313412,9.3173745255,9.9967156875,-13.16027838,-17.237194695,307.5,269.0,424.0,256.0,1.0,0.0,1.0,0.0,-0.0033920821445,0.0068626797605,0.014248442595,0.016551248865,-0.043072308105,-0.03422735874,0.18355696245,0.19173609525,0.0,0.0,0.0,21.231492895,-127.00288475,-142.99711525,107.2371947,103.16027835,-127.00288475,0
90,90.0,-2.956376481,-2.1879903655,9.29906976,10.0000209015,-52.880924,-2.9571872655,-2.188934691,9.298578519,10.000015354,-13.240373515,-17.636581059999997,303.25,217.75,420.5,238.0,0.0,1.0,1.0,0.0,0.001268980373,-0.0014695132215,-0.0136638203904999,0.014175104575,-0.070240416815,-0.03461821404,0.1778572508999999,0.1947507831,0.0,0.0,0.0,21.57977234,-126.50494925,-143.49505075000002,107.63658105,103.2403735,-126.50494925,0
91,91.0,-2.97873027,-2.2102630965000003,9.2851432595,9.998604007,-58.86485893,-2.9783248775,-2.209776626,9.2845852515,9.997858298,-13.389658365,-17.786551555000003,-1.0,-1.0,-1.0,-1.0,0.0,0.0,0.0,0.0,0.0025804015525,-0.003590492925,-0.0080542056745,0.00927530254,-0.0935000206,-0.03927847774,0.1659498931999999,0.19466394705,0.0,0.0,0.0,21.775566865,-126.5761546,-143.42384535000002,107.78655155,103.38965835,-126.5761546,0
92,92.0,-2.99946728,-2.208922917,9.278776188,9.9985921205,-51.33820711,-2.998346489,-2.2097718564999997,9.279653743,9.9992577425,-13.40772386,-17.92748063,306.0,219.0,424.0,224.0,0.0,0.0,1.0,0.0,0.0023565262425,-0.0066748791685,-0.014726962775,0.01643265944,-0.11040586745,-0.039200726955,0.1626872438,0.20048311055,0.0,0.0,0.0,21.89306738,-126.3834579,-143.6165421,107.9274806,103.4077239,-126.3834579,0
93,93.0,-2.9848779475,-2.2119562055,9.2839223605,9.9996885205,-42.061711235,-2.9856458085,-2.2115698905,9.283917592000002,9.99982693,-13.40123314,-17.823105745,304.0,227.0,408.0,242.0,0.0,0.0,1.0,0.0,0.005926859796,-0.0041973965875,-0.00806269383,0.01177738517,-0.09277325963,-0.04239955781,0.1672255651999999,0.1958800775999999,0.0,0.0,0.0,21.809961745000003,-126.5407448,-143.4592552,107.82310575,103.40123315,-126.5407448,0
94,94.0,-3.008161753,-2.18662157,9.281556726,9.998884895,-49.392433705,-3.009153772,-2.1860206355000003,9.281513799,9.999012022,-13.256461035,-17.95755502,295.7692307692308,277.3076923076923,412.2307692307692,262.3076923076923,1.0,1.0,0.0,0.0,0.0042451425165,-0.0047406390199999,-0.010752380455,0.012519167535,-0.10137281448,-0.03993894968,0.1663357134,0.19896275595,0.0,0.0,0.0,21.83492932,-126.0133599,-143.9866401,107.957555,103.25646105,-126.0133599,0
95,95.0,-3.015120193,-2.184527838,9.2809223845,9.9999321815,-49.72296099,-3.014614645,-2.184365681,9.2806409935,9.9994830435,-13.245090455,-17.99757511,297.2,283.93333333333334,415.6,270.46666666666664,1.0,1.0,1.0,0.0,0.0024636893085,-0.0037496459955,-0.0079512866625,0.00914284064,-0.1059245792,-0.041391002255,0.16379552405,0.19942018635,0.0,0.0,0.0,21.859670285,-125.9242192,-144.07578080000002,107.9975751,103.24509045,-125.9242192,0
96,96.0,-3.016369755,-2.1825676465,9.280893772,9.9998538925,-56.18433759,-3.01668453,-2.1827154955,9.280993929,10.000074121,-13.233663005,-18.004604495,297.06666666666666,287.1333333333333,415.6,275.26666666666665,1.0,1.0,1.0,0.0,0.00032997733645,-3.9257754785e-05,-0.00031830611326,0.0004970006386,-0.082434999905,-0.040598029255,0.1720181824,0.19503618755,0.0,0.0,0.0,21.85899734,-125.88853095,-144.11146904999998,108.00460445,103.233663,-125.88853095,0
97,97.0,-3.017285465,-2.1815422425,9.2815519255,10.000517245,-57.8138009,-3.0172663875000003,-2.1817139379999997,9.2816186955,10.0006109115,-13.22675978,-18.008522935000002,298.3333333333333,288.46666666666664,416.93333333333334,275.8666666666667,1.0,1.0,1.0,0.0,0.00019841081,0.000215387136,3.7135713100000005e-05,0.0003264514054,-0.07073422402,-0.0433712737549999,0.1757420991,0.19437376975,0.0,0.0,0.0,21.85834341,-125.8674896,-144.13251035,108.0085229,103.22675975,-125.8674896,0
98,98.0,-3.0137561670000004,-2.182395951,9.2821385455,10.0001844965,-49.52754796,-3.013899247,-2.18233395,9.2821719295,10.0002452215,-13.21689018,-18.00551702,297.0,289.6666666666667,415.6,276.8666666666667,0.0,1.0,1.0,0.0,0.00017294632105,-0.0003278552947899,-0.0012923228163,0.0014656507335,-0.0662463615,-0.0430516389149999,0.17684394315,0.19369324475,0.0,0.0,0.0,21.85076748,-125.8512977,-144.1487023,108.005517,103.2168902,-125.8512977,0
99,99.0,-3.0159500545,-2.1821050225,9.283206863499998,10.0017734,-59.336122395,-3.0161265195,-2.1817043995,9.2831257865,10.0016641,-13.2277763,-17.99806368,295.0,291.0,414.6666666666667,278.46666666666664,1.0,1.0,0.0,0.0,0.00034695366245,0.001750683616,0.002986772351,0.0034908809074999,-0.0567488094,-0.048334267045,0.18050787725,0.1953353522,0.0,0.0,0.0,21.85081613,-125.8865585,-144.11344150000002,107.99806365,103.2277763,-125.8865585,0
100,100.0,-3.0179150155,-2.1794485105000003,9.281761751,10.000445496,-59.35438242,-3.017824398,-2.179810979,9.281766521,10.000501689,-13.21422179,-18.01165718,294.73333333333335,292.3333333333333,414.6666666666667,279.1333333333333,1.0,1.0,1.0,0.0,8.063754845000001e-05,9.8674893885e-05,-0.00099205405015,0.0010709960740999,-0.05155806506,-0.0477045989499999,0.18079062585,0.19397166045,0.0,0.0,0.0,21.854089665,-125.8356952,-144.1643048,108.0116572,103.2142218,-125.8356952,0
101,101.0,-3.018005632,-2.1790908115,9.2817999145,10.0004304045,-42.211958815,-3.0178482449999997,-2.179128966,9.2820288405,10.00060368,-13.2120776,-18.012092915,294.06666666666666,292.73333333333335,413.8666666666667,279.6666666666667,0.0,1.0,1.0,0.0,0.000188861626675,1.5915305649999992e-05,-0.0004498726387,0.0009518833703999,-0.05274765283,-0.046509700035,0.18026987475,0.1935091708,0.0,0.0,0.0,21.85328331,-125.83041395,-144.16958605000002,108.0120929,103.2120776,-125.83041395,0
102,102.0,-3.011421622,-2.185507781,9.2829107645,10.000877,-43.002267335,-3.011728805,-2.1854173545,9.2826727565,10.000728925,-13.24808406,-17.973316515,295.46666666666664,292.93333333333334,414.8666666666667,280.3333333333333,1.0,1.0,1.0,0.0,0.00066161835195,0.00101991219845,0.0012280631774999,0.0031186094465,-0.04898069577,-0.05275696519,0.18147944955,0.19524347605,0.0,0.0,0.0,21.842565875,-125.9698825,-144.0301174,107.9733165,103.24808405,-125.9698825,0
103,103.0,-3.0188211860000003,-2.1815803975000003,9.282047925,10.00144947,-56.49459566,-3.018639952,-2.1817282465,9.28202408,10.00140497,-13.226300745,-18.016195585,297.6,292.8666666666667,416.73333333333335,280.8,1.0,1.0,1.0,0.0,0.00032679427535,5.411203724e-05,3.925775385000001e-05,0.000432685923,-0.04957432817,-0.05274636106,0.1816238741499999,0.1955216419,0.0,0.0,0.0,21.864021415,-125.85411625,-144.14588375,108.0161956,103.22630075,-125.85411625,0
104,104.0,-3.0201136725,-2.180240218,9.2807697585,10.000361088,-56.86152149,-3.019903822,-2.1800685225,9.280645755999998,10.000145202,-13.22246095,-18.02981936,294.93333333333334,292.8666666666667,414.6666666666667,280.46666666666664,1.0,1.0,0.0,0.0,0.00022281427865,-5.517306225000002e-05,-6.2600202095e-05,0.00099891408935,-0.05329319201,-0.04974477455,0.17995722185,0.19416862455,0.0,0.0,0.0,21.87249687,-125.8239591,-144.1760409,108.0298194,103.2224609,-125.8239591,0
105,105.0,-3.011471662,-2.1881429835,9.2827824045,10.0013494,-53.017049885000006,-3.0117890505,-2.1880503444999997,9.282895417,10.00152931,-13.26366917,-17.97382959,295.73333333333335,292.6666666666667,414.53333333333336,280.0,1.0,1.0,1.0,0.0,0.0006734508520499,0.00043226818965,0.0009776708555,0.0036889232295,-0.050246365365,-0.05520114489,0.1807711348,0.1955960151,0.0,0.0,0.0,21.85129283,-126.00225735,-143.99774265,107.9738296,103.26366915,-126.00225735,0
106,106.0,-3.017705165,-2.182863345,9.2817236225,10.001092215,-51.281971075,-3.017862553,-2.183087503,9.281847627,10.001303885,-13.234252285,-18.010553725,295.26666666666665,293.1333333333333,414.73333333333335,281.06666666666666,1.0,1.0,1.0,0.0,0.00036817406995,0.0005103508001,0.00101964057985,0.0015691913772499,-0.050148063235,-0.05710729531,0.1803625122,0.195766094,0.0,0.0,0.0,21.863900725,-125.8801886,-144.1198114,108.01055375,103.2342523,-125.8801886,0
107,107.0,-3.0208454785,-2.181880521,9.2811526935,10.00129522,-45.951410325,-3.020447679,-2.1821177665,9.2810184655,10.001102396,-13.22928733,-18.02912122,287.2307692307692,290.15384615384613,407.9230769230769,277.46153846153845,0.0,1.0,1.0,0.0,0.00019359801975,8.340468774999999e-05,-0.0004111114426,0.00099431896855,-0.053701385585,-0.05235813742,0.17940848835,0.1944657591999999,0.0,0.0,0.0,21.87558941,-125.83963055,-144.16036945000002,108.02912125,103.22928735,-125.83963055,0
108,108.0,-3.0137895520000004,-2.1846470705,9.2825296485,10.001048365,-54.056152275,-3.0135940100000003,-2.1840604445,9.282682267,10.001002925000002,-13.24357536,-17.98722971,261.875,272.875,391.375,263.625,0.0,1.0,0.0,0.0,0.0006557105912,-0.0001411157098,0.000621757941,0.0035480239134999,-0.0519603693,-0.05140613781,0.180314539,0.19456948385,0.0,0.0,0.0,21.850882605,-125.93774645,-144.0622535,107.9872297,103.24357535,-125.93774645,0
109,109.0,-3.015757527,-2.1844003255000004,9.2818996055,10.00100288,-49.08968315,-3.0160428465,-2.1845654205,9.2816590025,10.00090168,-13.24299959,-17.999360844999998,-1.0,-1.0,-1.0,-1.0,0.0,0.0,0.0,0.0,0.0003968555727,0.0010598787165,0.00112816174288,0.0018406106815,-0.050788170665,-0.05620437598,0.18005472825,0.19534191485,0.0,0.0,0.0,21.859929025,-125.9169001,-144.0830999,107.99936085,103.24299955,-125.9169001,0
110,110.0,-3.017652704,-2.182224256,9.2810129895,10.0002767215,-48.105873544999994,-3.0177194739999997,-2.182200409,9.2811226825,10.000393460000002,-13.2314908,-18.011550935,-1.0,-1.0,-1.0,-1.0,0.0,0.0,0.0,0.0,0.0002334244824,0.00012838346435,-0.0013443128147,0.00144739724475,-0.050066135975,-0.051023798555,0.18071125985,0.1943426027999999,0.0,0.0,0.0,21.863201325,-125.87268145,-144.12731855,108.0115509,103.2314908,-125.87268145,0
111,111.0,-3.0106751994999996,-2.1883671414999997,9.2813659435,9.9998442995,-48.067357335,-3.0105416585,-2.188328987,9.2813325575,9.9997645175,-13.26129566,-17.99456964,-1.0,-1.0,-1.0,-1.0,0.0,0.0,0.0,0.0,0.000268438154755,-0.000119895302295,-9.443080949999997e-05,0.002959392654,-0.05258499564,-0.050092431385,0.1793188644,0.19353301665,0.0,0.0,0.0,21.86599776,-125.9636135,-144.0363865,107.9945696,103.2612957,-125.9636135,0
112,112.0,-3.0162314445,-2.1848569209999997,9.2798922015,9.9993826085,-47.78270303,-3.016145597,-2.184990462,9.2799971285,9.9994832705,-13.248434245,-18.005649605000002,-1.0,-1.0,-1.0,-1.0,0.0,0.0,0.0,0.0,0.0002928416214999,-1.803734265e-05,-0.00037666223275,0.0010718442713,-0.05615704112,-0.04933191233,0.1781669254,0.19321167655,0.0,0.0,0.0,21.867678145,-125.91831295,-144.081687,108.0056496,103.2484342,-125.91831295,0
113,113.0,-3.0166988385,-2.185982481,9.2791148085,9.9990482365,-44.7634605,-3.0167751469999997,-2.1860874060000004,9.278981268,9.998970307,-13.25608977,-18.009670685,-1.0,-1.0,-1.0,-1.0,0.0,0.0,0.0,0.0,0.000136871627395,-0.00017931244515,-0.0007501414047999,0.00084117510615,-0.060993297025,-0.0479784049099999,0.1766496598999999,0.1929445135,0.0,0.0,0.0,21.87486234,-125.9281187,-144.07188125,108.00967065,103.25608975,-125.9281187,0
114,114.0,-3.0097356289999997,-2.1896119345,9.281819007,10.000254415,-48.98549801,-3.0095687025,-2.189726398,9.2819143915,10.00031778,-13.27358856,-17.965875755,250.0,260.0,391.0,247.0,0.0,0.0,1.0,0.0,0.000697090386,0.0001591530564999,-2.7586538999999815e-05,0.003858214525,-0.05902662142,-0.05055313749,0.17733406345,0.19368603875,0.0,0.0,0.0,21.850477945,-126.03626415,-143.96373585,107.96587575,103.27358855,-126.03626415,0
115,115.0,-3.0202472275,-2.1828347289999996,9.2797682195,10.000042022,-49.2399755,-3.020643081,-2.1826391865,9.279677606,10.00003539,-13.236769215,-18.0282919,-1.0,-1.0,-1.0,-1.0,0.0,0.0,0.0,0.0,0.00052802605225,0.0012845546303499,0.002565610416,0.0030140155675,-0.05413055402,-0.05193925757,0.1788072365,0.19396176675,0.0,0.0,0.0,21.8789839,-125.8570397,-144.1429603,108.0282919,103.2367692,-125.8570397,0
116,116.0,-3.0206240070000003,-2.1834261245,9.2810416165,10.001463305,-51.530858550000005,-3.020519082,-2.183402278,9.280922381,10.00131559,-13.23848216,-18.028084925,-1.0,-1.0,-1.0,-1.0,0.0,0.0,0.0,0.0,0.00016976325992,-0.001640337501,-0.003549113136,0.0040614214235,-0.0618444954,-0.049875491775,0.17735779915,0.1944025545,0.0,0.0,0.0,21.87968445,-125.8609115,-144.1390885,108.0280849,103.23848215,-125.8609115,0
117,117.0,-3.014199729,-2.1832448905,9.2829684605,10.001276225,-51.205203295,-3.0137657205,-2.1834690485,9.283302317,10.001503355,-13.21833692,-18.03178932,-1.0,-1.0,-1.0,-1.0,0.0,0.0,0.0,0.0,0.00065889364695,-0.00097719976935,-0.0006058426394999,0.002677427524,-0.06904535221,-0.045936052245,0.17653200945,0.19504558935,0.0,0.0,0.0,21.87182515,-125.8119929,-144.1880071,108.0317893,103.2183369,-125.8119929,0
118,118.0,-3.023003881,-2.1790621955,9.2821051745,10.002217045,-47.94786284,-3.023061113,-2.178723574,9.2821480975,10.00220027,-13.211491,-18.039436015,-1.0,-1.0,-1.0,-1.0,0.0,0.0,0.0,0.0,0.000549608554,-0.00046578794325,-0.00148542852255,0.0017450291824,-0.07296218276,-0.0396905448549999,0.17656250565,0.19514703095,0.0,0.0,0.0,21.8740953,-125.78508495,-144.214915,108.039436,103.211491,-125.78508495,0
119,119.0,-3.013627409,-2.1807505355,9.2844469275,10.001929095,-42.853002235,-3.013908799,-2.180969924,9.2841083025,10.00174757,-13.218148235,-17.98284973,-1.0,-1.0,-1.0,-1.0,0.0,0.0,0.0,0.0,0.0010567762923,-0.00065040548955,-0.00236925849915,0.0032612122765,-0.064382823585,-0.04977287013,0.17853513215,0.19625472225,0.0,0.0,0.0,21.8339488,-125.89061415,-144.10938585,107.9828497,103.2181482,-125.89061415,0
120,120.0,-3.0127927645,-2.1794198945,9.28447075,10.001413455,-48.825759445,-3.012792765,-2.1792863535,9.284661525,10.001561555,-13.21032894,-17.978142865000002,-1.0,-1.0,-1.0,-1.0,0.0,0.0,0.0,0.0,0.0010514711911,0.0019501554415,0.0042387763915,0.0047999907045,-0.05396607989,-0.05427216217,0.1783034748,0.1940409635,0.0,0.0,0.0,21.82619433,-125.8816803,-144.1183197,107.97814285,103.2103289,-125.8816803,0
121,121.0,-3.0203139845,-2.1790192715,9.2821862515,10.001470495,-59.87183848,-3.020251983,-2.179190967,9.282095636,10.001405065,-13.211128065,-18.02427624,-1.0,-1.0,-1.0,-1.0,0.0,0.0,0.0,0.0,-0.000785155077,0.0007830330336,0.0006567716144999,0.0023952166245,-0.0493121168949999,-0.05427935373,0.18185284805,0.196130494,0.0,0.0,0.0,21.862195475,-125.808745,-144.191255,108.02427625,103.21112805,-125.808745,0
122,122.0,-3.0112236575,-2.185553242,9.2838221415,10.001679215,-52.489857885,-3.0110376535,-2.1856390895,9.2836790615,10.001509055,-13.24708276,-17.970558915,-1.0,-1.0,-1.0,-1.0,0.0,0.0,0.0,0.0,0.00037560121255,-0.0015246862771,-0.002581462563,0.00316359133,-0.05526395936,-0.048857585895,0.1814131168,0.1959377493,0.0,0.0,0.0,21.839986385000003,-125.9723955,-144.0276045,107.97055895,103.24708275,-125.9723955,0
123,123.0,-3.0058629485,-2.1941189455,9.283970012,10.00207446,-39.419411425,-3.007398673,-2.1945624925,9.2834453845,10.00214693,-13.3225583,-17.92750435,261.4,228.8,361.8,221.0,1.0,1.0,0.0,0.0,-0.001289139759,0.0038292225165,-0.0043968684265,0.00979168286,-0.05103191932,-0.05533287108,0.1808708687,0.1959584652,0.0,0.0,0.0,21.84721881,-126.2027523,-143.7972477,107.9275043,103.3225583,-126.2027523,0
124,124.0,-3.1256875385000003,-2.2371191755,9.2369015645,10.004960325,-29.529458505,-3.1263886285,-2.2375627225,9.2369492595,10.005342015,-13.614650705,-18.69538692,310.8,226.26666666666668,401.6666666666667,229.73333333333332,0.0,1.0,0.0,0.0,-0.006936951231,0.01918324834,0.010453172719,0.02311626567,-0.07143836579,-0.0474591718499999,0.1779213652,0.19910328215,0.0,0.0,0.0,22.594406145,-125.5984536,-144.4015464,108.6953869,103.6146507,-125.5984536,0
125,125.0,-3.388715867,-2.496575278,9.059458858,9.993997294,-35.314687425,-3.3965041769999997,-2.502799248,9.054589376,9.993935905,-15.41773672,-20.516131145,358.6666666666667,238.33333333333337,452.8,242.6,1.0,1.0,0.0,0.0,-0.061445811975,0.0498340051149999,0.002908256923,0.08053552154,-0.088637984735,-0.06014765084,0.1524027574999999,0.19548726015,0.0,0.0,0.0,24.92144338,-126.35759885,-143.64240115,110.5161311,105.4177367,-126.35759885,0
126,126.0,-3.5163812125,-2.6035130765,8.988915848000001,9.997451352,-46.133772355000005,-3.5087598285,-2.6008708709999997,8.992645462999999,9.9974091945,-16.153416970000002,-21.365360905000003,356.07142857142856,238.1428571428571,453.42857142857144,240.28571428571428,1.0,1.0,0.0,0.0,0.029992923942,-0.0192278111749999,-0.003632933712,0.037061519873,-0.03836719537,-0.04883528552,0.187248491,0.1983702380999999,0.0,0.0,0.0,25.955067675,-126.51012465,-143.48987535,111.3653609,106.15341695,-126.51012465,0
127,127.0,-3.488900327,-2.5182756545,9.025673068,9.998847021,-39.88298734,-3.492420089,-2.5174648685000003,9.024289963,9.9986283655,-15.589769515,-21.13415646,354.6666666666667,239.8,453.8,243.4,1.0,0.0,0.0,0.0,0.00292417215386,0.0001230783579,-0.0015543948605,0.0038223869114,-0.071821820055,-0.04262269893,0.1728105328,0.19211495965,0.0,0.0,0.0,25.48852183,-125.82163425,-144.17836575,111.13415645,105.5897695,-125.82163425,0
128,128.0,-3.4808449095,-2.5206698525,9.0293120445,9.9999276685,-50.41644906,-3.4809116805,-2.520493388,9.0293835855,9.999970722,-15.597883445,-21.08189765,341.6666666666667,245.86666666666667,444.73333333333335,245.0,1.0,1.0,1.0,0.0,0.00075226344535,-0.0005962934505,-0.0002907195945,0.005012788758,-0.065135727065,-0.047203548555,0.1754362073499999,0.19301443975,1.0,0.0,0.0,25.453051855,-125.9103644,-144.0896356,111.08189765,105.59788345,-125.9103644,0
129,129.0,-3.483973585,-2.502679972,9.033408879,10.000198382,-50.895071564999995,-3.483711272,-2.5028564365,9.0335471885,10.0002762925,-15.47325649,-21.1068428,326.85714285714283,254.28571428571428,435.6428571428572,248.6428571428571,0.0,1.0,0.0,0.0,0.0001315665264499,0.0016085068875,0.003003748669,0.00369511947,-0.054731221395,-0.049007901095,0.17988148175,0.194318047,1.0,0.0,0.0,25.40798046,-125.6460411,-144.3539589,111.1068428,105.4732565,-125.6460411,0
130,130.0,-3.485108683,-2.500290542,9.0333850395,9.9999748515,-46.811410025,-3.4851277605,-2.50044793,9.033423194,10.0000555825,-15.471200275,-21.09677275,325.0,255.26666666666668,433.73333333333335,248.8,0.0,1.0,0.0,0.0,-0.0008106195661,-0.001309299142,-0.0047682255435,0.005051440354,-0.063660603305,-0.037233809325,0.17815958905,0.19285280935,0.0,0.0,0.0,25.399266115000003,-125.6564717,-144.3435283,111.09677275,105.4712003,-125.6564717,0
131,131.0,-3.4746543305,-2.5075876035,9.0360892585,10.00060926,-44.981890935,-3.4744015565,-2.5072060585,9.035912793,10.0002664195,-15.5097564,-21.03328515,324.06666666666666,255.6,432.26666666666665,249.26666666666668,0.0,1.0,0.0,0.0,0.001270041388,0.0008827689516,0.0039830704655,0.0043719411849999,-0.059278631835,-0.047827609465,0.1791767035499999,0.1947535655,0.0,0.0,0.0,25.370784625,-125.8171816,-144.1828184,111.03328515,105.5097564,-125.8171816,0
132,132.0,-3.4832438784999997,-2.4935610295000004,9.0360367725,10.0000399035,-54.724455665,-3.4833821890000003,-2.493742264,9.036241854,10.0003185385,-15.427235915,-21.08083167,324.6,255.33333333333337,432.06666666666666,249.53333333333333,0.0,1.0,0.0,0.0,-0.0007023954879,0.0003915165182,-0.0001421767300999,0.0012827553745,-0.060199904065,-0.04331696412,0.17893545215,0.19370303125,0.0,0.0,0.0,25.364607335,-125.59786665,-144.4021333,111.08083165,105.42723595,-125.59786665,0
133,133.0,-3.4772679185,-2.501878726,9.037667898,10.001513585,-53.58441328,-3.4771582245,-2.502012267,9.037911132,10.001728855,-15.473566705,-21.044367365,325.46666666666664,250.66666666666663,432.26666666666665,246.6,0.0,1.0,0.0,0.0,0.0003734791718499,-0.001273224449,-0.0039862535395,0.004202908934,-0.064200670485,-0.043638921555,0.17916339445,0.19526624705,1.0,0.0,0.0,25.36060287,-125.7348341,-144.2651659,111.04436735,105.4735667,-125.7348341,0
134,134.0,-3.5398891835,-2.5268175494999996,9.0187622825,10.0129808755,-41.670978655,-3.5366078875,-2.5255727555,9.0144508105,10.0076106265,-15.65172038,-21.429831325,327.375,249.75,432.0,246.875,0.0,1.0,1.0,0.0,-0.02073552118705,0.0425044761434999,0.0219981355029999,0.053998526501,-0.05230220349,-0.0510395634849999,0.18848952515,0.2023873097,0.0,0.0,0.0,25.74491646,-125.5243261,-144.4756739,111.4298313,105.6517204,-125.5243261,0
135,135.0,-3.6212253005,-2.3544016615,8.9799685875,9.9664208975,-31.30486842,-3.626571715,-2.3494034074999997,8.9837506665,9.970703658,-15.81158209,-22.10348796,-1.0,-1.0,-1.0,-1.0,0.0,0.0,0.0,0.0,0.041307645145,-0.0220745291,0.00152256422,0.06339817256,-0.071471211635,-0.0489165533299999,0.19189019785,0.2156868258499999,0.0,0.0,0.0,26.34061935,-124.8877035,-145.1122964,112.103488,105.8115821,-124.8877035,0
136,136.0,-3.60448974,-2.1449853325,9.0514464305,9.9770921595,-35.553727585,-3.598375464,-2.1428343675,9.047759736,9.9711402945,-13.32553918,-21.71177867,345.0,223.0,448.5,243.5,1.0,0.0,1.0,0.0,0.032258202305,-0.00683615421195,-0.013308378535,0.03644019382,-0.09113749561,-0.080331310175,0.2175071719,0.2540348181,0.0,0.0,0.0,24.86289692,-120.7150295,-149.2849705,111.7117787,103.3255392,-120.7150295,0
137,137.0,-3.395826951,-2.1720989509999997,9.258120422,10.09781336,-38.621223310000005,-3.3954072505,-2.16247922,9.249201785,10.08727395,-13.20286454,-20.142800334999997,281.57142857142856,235.0,362.2857142857143,237.1428571428571,1.0,1.0,1.0,0.0,0.00921708409,-0.0214050251745,-0.03217438191,0.05067022158,0.035297712805,-0.0917021789919999,0.183659131025,0.218180949245,0.0,0.0,0.0,23.530670215,-122.60010485,-147.39989515000002,110.1428003,103.20286455,-122.60010485,1
138,138.0,-3.4474453585,-2.310519105,9.0048501145,9.9186433285,-39.883536705,-3.459855143,-2.330731509,9.017116827,9.939067924,-14.41086001,-20.963135305,264.2307692307692,242.07692307692307,338.61538461538464,232.07692307692307,1.0,1.0,0.0,0.0,-0.079535148405,0.0198007622149999,0.0189179935299999,0.124794945555,-0.091165415595,-0.101810242535,0.149985824415,0.240726626,0.0,0.0,0.0,24.76214478,-123.7763149,-146.22368505,110.9631353,104.41086,-123.7763149,1
139,139.0,-3.726727547,-2.75842561,8.9136273055,10.05102751,-23.44370254,-3.729479447,-2.763853103,8.906497157499999,10.047679505,-17.196517290000003,-22.685246319999997,263.0,302.25,336.25,280.5,0.0,0.0,1.0,0.0,-0.064180061385,0.0554245213949999,0.05936196797,0.105525907595,-0.050288609705,-0.05339884114,0.2020217537999999,0.2152109295499999,0.0,0.0,0.0,27.49154815,-126.5933788,-143.40662120000002,112.6852463,107.1965173,-126.5933788,1
140,140.0,-4.2019575095,-3.049883881,8.499730785499999,9.965779976,-24.73755029,-4.2086705845,-3.0488458475,8.497550023999999,9.9662699165,-19.734964215,-26.29804067,-1.0,-1.0,-1.0,-1.0,0.0,0.0,0.0,0.0,0.0135088900625,0.069240683024,0.067506008051,0.10429119591,-0.1623288358,-0.083035134315,0.09184057888,0.21807128195,0.0,0.0,0.0,31.447155075,-126.0780321,-143.9219679,116.2980407,109.7349642,-126.0780321,1
141,141.0,-5.3160768725,-3.1147657874999997,7.872511977,10.0358207735,-43.24217967,-5.3283578894999994,-3.1114081805,7.862877938,10.032572592,-21.716230975,-34.09594058,-1.0,-1.0,-1.0,-1.0,0.0,0.0,0.0,0.0,-0.411095526,-0.041897571695,0.5019634334,0.6512271417,0.2236426137085,-0.27088482785,0.4975864576,0.90938120045,0.0,0.0,0.0,38.106229085,-120.5862585,-149.4137415,124.09594055,111.71623095,-120.5862585,1
142,142.0,-5.8022190555,-3.0036643435,7.6218838575,10.063169499,-50.501249900000005,-5.75921881,-3.0022717005,7.644251994999999,10.0583938025,-20.23737413,-33.09462238,-1.0,-1.0,-1.0,-1.0,0.0,0.0,0.0,0.0,-0.04954752989445,-0.282806493385,0.0275844074233999,0.304847113,0.0102648682245,-0.19048018225,0.13909958639,0.2381252895,0.0,0.0,0.0,36.82596892,-119.4948169,-150.5051831,123.0946224,110.2373741,-119.4948169,1
143,143.0,-4.309596438,-3.1740199020000004,8.312301051,9.886590587,-42.145915165,-4.337964391,-3.1823328369999997,8.297291982499999,9.889089323,-20.897553605,-27.4045516,-1.0,-1.0,-1.0,-1.0,0.0,0.0,0.0,0.0,-0.010755563455,0.100649453365,-0.090432888635,0.17475305835,-0.116282701305,-0.032059170835,0.26361806425,0.31424820685,0.0,0.0,0.0,32.77674063,-126.3671081,-143.6328919,117.4045516,110.8975536,-126.3671081,1
144,144.0,-5.41385282,-1.6731034400500002,7.6071323595,9.8111866855,-54.962288005000005,-5.3630261105,-1.66852488685,7.638237905,9.834632678999998,-12.986185178,-34.40274025,-1.0,-1.0,-1.0,-1.0,0.0,0.0,0.0,0.0,0.6704354317,-0.49214687535,-0.42224260645,1.7347952555,-0.17607026865,-0.5367565572,0.2214913440249999,0.701808086,0.0,0.0,0.0,35.41899984,-105.7694082,-164.2305918,124.40274025,102.986185165,-105.7694082,1
145,145.0,0.40485855255,1.6833670285,9.817009139,9.975921866,-55.82646434,0.40950387615,1.7288282444999998,9.803817179,9.9687550395,9.7220132215,2.362434029,-1.0,-1.0,-1.0,-1.0,0.0,0.0,0.0,0.0,0.1966611878,-0.028087331281,-0.0253148857,0.39476925465,0.0703330950999999,0.0198794011999999,0.12634010441,0.33726108265,0.0,0.0,0.0,9.995467788,13.789924555,76.210075445,87.637565965,80.27798677000001,13.789924555,1
146,146.0,0.9906558032,1.9681053375,9.7267639685,9.974263023,-46.315309455,0.9972803972,1.9692165905,9.723787912,9.972115738,11.437166845,5.8153802325,-1.0,-1.0,-1.0,-1.0,0.0,0.0,0.0,0.0,0.023180111985,-0.04415224089,-0.0019363620699999,0.109331008325,0.05020380206,0.05442550965,0.1332067698,0.1524027604,0.0,0.0,0.0,12.76922893,26.828503845,63.17149615,84.18461976,78.562833145,26.828503845,1
147,147.0,1.168561198,1.7130751635,9.772497039,9.9911129475,-55.60704797,1.171608798,1.7112580495,9.7892612225,10.0075027075,9.9445562965,6.816928108000001,-1.0,-1.0,-1.0,-1.0,0.0,0.0,0.0,0.0,0.004057342035,-0.006228189468,0.01607658074,0.075419693965,0.067787216375,-0.00432583796,0.1964110621,0.2098205274,0.0,0.0,0.0,12.00217785,34.404684365,55.59531563,83.183071885,80.05544369500001,34.404684365,1
148,148.0,-0.1904010378,1.0303795151,9.7172586965,9.8139521355,-52.096395595,-0.2075086105499999,1.037671815,9.692038498,9.7872592525,6.0578734845,-1.1646742275,-1.0,-1.0,-1.0,-1.0,0.0,0.0,0.0,0.0,0.03457229045,0.1831055906099999,0.0755075155999999,0.8469242984500001,-0.100630547145,-0.0376292963849999,0.2642952349499999,0.35128298735,0.0,0.0,0.0,7.971862451,-3.766782714999998,93.76678272,91.164674225,83.94212651000001,-3.766782714999998,1
149,149.0,-2.622289951,-0.8104229641,9.4750532345,9.9779135805,-42.142507575,-2.6785584605,-0.85894131895,9.462753142,9.983531186,-5.112829892,-15.5625190485,-1.0,-1.0,-1.0,-1.0,0.0,0.0,0.0,0.0,-0.94680365,0.5508414616499999,1.1891141835,1.6523344915,-0.29138101815,-0.4186830737,-0.28877145902,0.6087572162,66.0,904.8703243371212,517.009706439394,16.7149759325,-99.8358938,9.835893799999994,105.56251904,95.112829895,-99.8358938,1
150,150.0,-5.882438823499999,-4.74911184,6.381477107,9.9472228675,-41.82661739,-5.877770092,-4.757686267,6.376917993499999,9.9377157275,-36.256397755,-42.62130411,196.0,313.0,263.0,290.0,0.0,1.0,0.0,0.0,0.19970501311,0.29716258644,-0.496494265,0.7849893853,0.0013789785999999,-0.1181130444,0.3074176819999999,0.8799864674,28.0,884.2806919642857,367.935546875,50.041880340000006,-128.57953075,-141.4204692,132.6213041,126.25639775,-128.57953075,1
151,151.0,-4.779360763,-3.6035549465,8.0057955475,10.0441610045,-32.4082349715,-4.772559704,-3.590758846,8.0242242215,10.0511353685,-30.01631823,-34.72426796,248.66666666666663,273.0,325.6666666666667,268.6666666666667,1.0,1.0,1.0,0.0,0.5149715443,0.0078950513449999,-0.27454008275,0.6062949393,-0.112580838575,-0.3415053403499999,0.1842978660799999,1.11711614795,2.0,0.0,0.0,42.05920841,-129.81437,-140.18563,124.724268,120.0163182,-129.81437,1
152,152.0,-4.3585392894999995,-2.298223785,8.7059039735,10.004782531,-51.842920795,-4.3614819655,-2.2959583544999997,8.7028373005,10.0030549845,-14.78209685,-26.59430255,296.5,240.0,386.0,245.0,1.0,0.0,0.0,0.0,0.072633210665,0.02203527125,-0.041340536915,0.09227437142,-0.094283946655,0.024519548555,0.23334615835,0.2628199285,64.0,384.6515502929687,709.40576171875,29.521059705,-117.796193,-152.20380699999998,116.59430255,104.78209685,-117.796193,1
153,153.0,-4.465500954,-2.3826980885,8.618968718000001,9.997408774,-44.945965935,-4.461790417,-2.3886645165,8.619951197999999,9.997944431,-15.44194121,-27.388685565000003,328.0,245.0,412.6666666666667,248.33333333333337,1.0,0.0,0.0,0.0,-0.0547422850149999,0.0003702960899999,0.00121168521,0.08260105397,-0.05079807332,-0.03614457575,0.1500770405,0.16950051135,48.0,1117.2014973958333,426.120361328125,30.4447115,-118.0767377,-151.92326225,117.38868555,105.4419412,-118.0767377,1
154,154.0,-4.3860201095,-2.543591293,8.609539756,9.9917193095,-36.381052405,-4.3850853225,-2.5439728385,8.612024575,9.993576036,-16.459324915,-26.99561409,307.46666666666664,247.46666666666667,393.06666666666666,247.0,1.0,1.0,0.0,0.0,0.003473780662,-0.011317904372,0.0045687538045,0.017763679575,-0.09711303163,-0.043963597315,0.14012054445,0.17792296805,38.0,679.5743215460526,342.1331208881579,30.493711735,-120.11245965,-149.8875403,116.9956141,106.45932495,-120.11245965,1
155,155.0,-4.3031960715,-2.554169621,8.655515996,9.997971797,-47.28765575,-4.303525154500001,-2.5532682170000003,8.65406135,9.996620496,-16.440869005,-26.43484061,-1.0,-1.0,-1.0,-1.0,0.0,0.0,0.0,0.0,-0.0005931103834999,0.001907714646,0.003354946403,0.0042395106145,-0.077544000415,-0.05785190113,0.1647017721,0.19155491945,70.0,56.939787946428574,79.83655133928572,30.034118715,-120.69150015,-149.30849984999998,116.4348406,106.440869,-120.69150015,1
156,156.0,-4.3074598895000005,-2.5546799485,8.65057022,9.995650669,-46.250762205,-4.307130806,-2.554689487,8.650522526500001,9.995470251,-16.452872675000002,-26.47052298,317.0,252.66666666666663,407.1666666666667,254.33333333333337,1.0,1.0,1.0,0.0,-0.00025888896581,0.0008413891726,0.00433002414,0.0047133563365,-0.078894455005,-0.05802823999,0.1616235102,0.188985418,84.0,173.05492001488096,763.4012741815476,30.067748915000003,-120.67136585,-149.32863415,116.470523,106.45287265,-120.67136585,1
157,157.0,-4.318462714,-2.542379846,8.645762738,9.993101787,-49.848674555,-4.3194070395,-2.541902914,8.645405038,9.9930787145,-16.41371352,-26.50941129,318.625,253.5,412.5,256.875,1.0,1.0,1.0,0.0,-0.00028965856035,0.0029167449945,0.0040499147665,0.005035423991,-0.07743869178,-0.05513738495,0.16427176305,0.1898232682,74.0,837.8472339527027,463.4881756756757,30.08277882,-120.5654745,-149.4345255,116.5094113,106.4137135,-120.5654745,1
158,158.0,-4.311414699,-2.556553798,8.649720038000002,9.9970964575,-47.74224211,-4.310937574,-2.557156702,8.6499262985,9.997222984,-16.465830609999998,-26.493753315,317.93333333333334,254.13333333333333,405.4,254.86666666666667,1.0,1.0,1.0,0.0,0.000557774541855,2.606158999999999e-05,0.0020204448246,0.00263577800855,-0.068206094925,-0.058528484835,0.16640825425,0.18936233535,49.0,1195.0703922193877,90.74226721938776,30.09178892,-120.6668303,-149.33316965,116.4937533,106.4658306,-120.6668303,1
159,159.0,-4.3142466335,-2.5477739375,8.6498548255,9.996192947,-49.89603708,-4.314179863,-2.5472302355,8.64995975,9.9961166465,-16.412084475,-26.508425705,331.375,252.9375,413.75,255.3125,1.0,0.0,1.0,0.0,0.00019522774798,0.0010185795704,0.0020254878863,0.0024523298882499,-0.070134432085,-0.059796896615,0.1659924782,0.18988583795,3.0,0.0,0.0,30.081316635,-120.5639262,-149.4360738,116.5084257,106.41208445,-120.5639262,1
160,160.0,-4.3203513650000005,-2.5469393059999996,8.647126783,9.9962571425,-48.92240473,-4.320322749500001,-2.5474782395,8.6472412465,9.9964815235,-16.411890675000002,-26.548023395,339.07142857142856,254.5,418.7857142857143,257.57142857142856,1.0,0.0,1.0,0.0,-9.761387074e-05,0.000489130399145,-0.00213265094995,0.0025555311491,-0.07665342737,-0.052500365955,0.1656127145499999,0.1898966144,0.0,0.0,0.0,30.11313125,-120.52023875,-149.47976125,116.5480234,106.4118907,-120.52023875,1
161,161.0,-4.311509043,-2.5554286935,8.650379446999999,9.9974198365,-48.2623799,-4.311060726999999,-2.5551616115,8.6506417585,9.997385403,-16.45779056,-26.49251436,338.75,247.08333333333337,422.3333333333333,260.9166666666667,1.0,1.0,1.0,0.0,0.00134749587355,-0.0014069130099,0.00329340724,0.0038503652425,-0.077074372405,-0.052304134655,0.16693113925,0.1911719473499999,33.0,627.6405066287879,173.33274147727272,30.08744971,-120.6551857,-149.3448143,116.49251435,106.45779055,-120.6551857,1
162,162.0,-4.318615332,-2.538721747,8.6489152735,9.994965172,-47.22924292,-4.319693199,-2.5386263600000003,8.648452648500001,9.995005849,-16.35858485,-26.534087515000003,315.8,257.0,407.6,256.73333333333335,0.0,1.0,1.0,0.0,-8.488163090000002e-05,0.0021549323766,-0.0005846222225,0.003932323456,-0.076697010275,-0.055428189705,0.1634228395999999,0.1888667225999999,0.0,0.0,0.0,30.079897595,-120.4494039,-149.5505961,116.53408755,106.35858485,-120.4494039,1
163,163.0,-4.307898667,-2.5571218460000003,8.6499311365,9.995912367,-41.599138555,-4.3075934305,-2.5566782994999997,8.6499168295,9.995653352,-16.44516566,-26.52380386,333.07142857142856,260.92857142857144,419.07142857142856,263.14285714285717,1.0,1.0,1.0,0.0,0.0004668489629,-0.00014323774594,-1.1671223500000182e-05,0.006464563677,-0.081321018585,-0.05615100133,0.16269484125,0.1903872119,0.0,0.0,0.0,30.10738316,-120.6004759,-149.3995241,116.5238039,106.4451657,-120.6004759,1
164,164.0,-4.286947028,-2.5499965085,8.6611437815,9.9948281535,-35.46801676,-4.2842666645000005,-2.553110878,8.662522118,9.9956864325,-16.405356705000003,-26.333634465000003,328.1333333333333,255.13333333333333,414.6666666666667,252.2,1.0,1.0,1.0,0.0,0.0027002968145,-0.004301376535,0.0043225970045,0.0067146353145,-0.071763943885,-0.065949629995,0.16679444165,0.1934958098,32.0,739.785400390625,424.8250732421875,29.93813046,-120.7462102,-149.2537898,116.33363445,106.4053567,-120.7462102,1
165,165.0,-4.1989909910000005,-2.4307776655,8.741573782,9.9977965505,-43.21214023,-4.2033120010000005,-2.4380651965,8.7393560445,9.9994819225,-15.53991761,-25.657346185,314.8235294117647,243.05882352941177,395.0,241.94117647058823,1.0,0.0,0.0,0.0,0.0204840593605,-0.01449990447,-0.010063778186,0.0322906867,-0.0707678744599999,-0.06302407718,0.16433732755,0.1901704197,21.0,813.5018601190476,396.5016741071428,29.031702735000003,-120.06616805,-149.93383195,115.6573462,105.5399176,-120.06616805,1
166,166.0,-4.111750476,-2.355970776,8.802225292500001,9.996848134,-40.61447084,-4.1107632259999995,-2.3530328715,8.802978845,9.996416262,-14.98428628,-25.038473155,309.4,243.73333333333332,392.0,242.86666666666667,1.0,0.0,0.0,0.0,-0.002443529868,0.0038642362465,0.004474322863,0.0067625389795,-0.062850386765,0.0047890633535,0.1756610556,0.1867387214999999,39.0,759.3936298076923,365.25540865384613,28.29709394,-119.81285205,-150.18714795,115.03847315,104.9842863,-119.81285205,1
167,167.0,-4.152165763999999,-2.441794802,8.7574794605,9.994861228,-40.731041430000005,-4.1507445060000006,-2.434640812,8.758051778999999,9.9930107985,-15.57979248,-25.366971975,306.9375,255.875,390.1875,253.25,1.0,0.0,0.0,0.0,-0.0038345277085,0.0058154525677,0.0064552478664999,0.0120819153655,-0.0855295370399999,-0.033373285455,0.1631570822,0.189529618,1.0,751.96484375,357.15234375,28.812488645,-120.45783465,-149.54216535,115.36697195,105.5797925,-120.45783465,1
168,168.0,-4.1902108170000005,-2.4888107855,8.730222666,9.998443091,-44.76070146,-4.18956219,-2.4887153985,8.730685289,9.9985516085,-15.911783805,-25.639426275,304.53333333333336,260.3333333333333,395.46666666666664,258.0,1.0,1.0,0.0,0.0,0.00025782795473,0.0007989483328,-7.427142799999991e-05,0.0024046824215,-0.070284952095,-0.07854007785,0.1657037379499999,0.196931058,34.0,807.2954963235294,300.3759191176471,29.172253625,-120.7085262,-149.2914738,115.6394263,105.9117838,-120.7085262,1
169,169.0,-4.1848071650000005,-2.4970617115,8.729826809,9.997892446,-43.612888725,-4.184439927,-2.497085558,8.729926966,9.997831716,-15.962530535,-25.611608134999997,306.6,255.33333333333337,399.2,253.8,1.0,1.0,0.0,0.0,0.000410614884,0.0006525275258,0.0012923228126,0.0017642761814999,-0.070377620985,-0.071487438025,0.1651675246,0.19324836095,0.0,0.0,0.0,29.171253605,-120.824361,-149.175639,115.6116081,105.96253055,-120.824361,1
170,170.0,-4.1855177735,-2.5023747355,8.728448484000001,9.998313005,-41.306598275,-4.1853794585,-2.5022984265000003,8.728381715000001,9.998177538,-15.97975287,-25.62880175,306.53333333333336,253.53333333333333,400.6,251.26666666666668,1.0,1.0,1.0,0.0,0.0012880787346,0.000274804277,0.0043374512814999,0.0045492184505,-0.0688768865799999,-0.072311124245,0.16619665355,0.19390315585,0.0,0.0,0.0,29.19234917,-120.8336295,-149.1663705,115.6288017,105.9797529,-120.8336295,1
171,171.0,-4.1841203575,-2.4988120525,8.7303704795,9.9985147535,-42.52242101,-4.184196668,-2.49904098,8.730427711499999,9.9986538345,-15.972214145,-25.606552385,307.53333333333336,255.0,398.6,251.46666666666667,1.0,0.0,0.0,0.0,-0.00050504569825,0.0006822361008,-0.000323611214205,0.00092226578655,-0.07223672396,-0.064771145765,0.1671566444,0.19334720045,59.0,715.1671080508474,455.7255031779661,29.1712537,-120.84620615,-149.15379385,115.6065524,105.97221415,-120.84620615,1
172,172.0,-4.1854748535,-2.5007865515,8.7299842,9.9992382445,-55.09183548,-4.185703785,-2.5006530105,8.729707579500001,9.9990589865,-15.98486142,-25.61476821,306.6666666666667,255.6,398.8666666666667,252.0,1.0,0.0,0.0,0.0,0.0008615485441,-0.0002525228509499,0.0005114118161,0.001492799794,-0.07633264996,-0.0554467554449999,0.16689066465,0.1917765797,67.0,661.6462220149253,512.142723880597,29.183213975,-120.85797295,-149.14202699999998,115.61476825,105.9848614,-120.85797295,1
173,173.0,-4.193492126,-2.4851622545,8.7300175725,9.998731425,-55.908630445,-4.193458740500001,-2.4847473235,8.730213112000001,9.998785217,-15.889991505,-25.657449435,305.2,260.8,398.06666666666666,256.53333333333336,1.0,1.0,1.0,0.0,0.0006599546729,-0.00047639814626,0.002872182151,0.0030435679745,-0.0786888156199999,-0.0573410998549999,0.16618154845,0.19269053455,5.0,659.8984375,516.025,29.17762577,-120.65199125,-149.34800875,115.6574494,105.8899915,-120.65199125,1
174,174.0,-4.1943220404999995,-2.4766299380000003,8.731138354999999,9.997940663,-49.17584816,-4.194503275000001,-2.4765393209999997,8.7310048135,9.9978776705,-15.83624571,-25.659006645,301.2,261.6666666666667,395.53333333333336,257.26666666666665,1.0,1.0,1.0,0.0,9.86748948e-05,0.00051035080013,-0.001555455869,0.001753738818,-0.082629909735,-0.049257113425,0.1663013634,0.19213535055,0.0,0.0,0.0,29.15632704,-120.5606706,-149.43932940000002,115.65900665,105.8362457,-120.5606706,1
175,175.0,-4.1933633189999995,-2.480335701,8.730713909,9.99808639,-41.870705965,-4.193391935,-2.4807077079999997,8.730852222,9.998311516,-15.859484545,-25.65498268,299.6666666666667,262.06666666666666,393.8,257.93333333333334,1.0,1.0,1.0,0.0,3.607469274e-05,0.00050610671675,-0.00208596605155,0.0022394371306,-0.084364974155,-0.04140511965,0.16648900005,0.19118758525,12.0,659.8984375,515.515625,29.162816014999997,-120.60391945,-149.39608055,115.65498265,105.85948455,-120.60391945,1
176,176.0,-4.1976414895000005,-2.4763056245,8.730246488999999,9.9984744245,-40.834232225,-4.197541334,-2.476181622,8.730232178,9.9983891635,-15.8316586,-25.66833604,302.06666666666666,262.26666666666665,394.4,258.0,1.0,1.0,1.0,0.0,0.00049443549455,-0.0003490757032,0.002487031757,0.002626439107,-0.079821942345,-0.0504466900749999,0.1668685353,0.1917697439,10.0,659.8984375,515.515625,29.1619446,-120.5425512,-149.4574488,115.668336,105.8316586,-120.5425512,1
177,177.0,-4.1982185795,-2.4749892915,8.730365742,9.9984948975,-41.673288265,-4.1982328875,-2.475132371,8.73024651,9.9984322765,-15.82761166,-25.681758085,301.8666666666667,263.3333333333333,394.06666666666666,258.1333333333333,1.0,0.0,1.0,0.0,0.0001793124433,2.970857045e-05,-0.00101539649815,0.0010541773834,-0.08065754776,-0.051797482755,0.1661070583,0.1917815892,40.0,612.275390625,525.28955078125,29.171104615,-120.52076605,-149.47923394999998,115.6817581,105.82761165,-120.52076605,1
178,178.0,-4.1970357895,-2.4823006615,8.730375290000001,9.9998192825,-44.84407405,-4.1971359454999995,-2.48217189,8.730537445,9.9999709185,-15.871997705,-25.675429565,298.73333333333335,263.53333333333336,391.6666666666667,258.0,1.0,1.0,1.0,0.0,0.0005453644722399,0.0003395265178499,2.4403469499999957e-05,0.0025211955205,-0.08123735894,-0.05342257411,0.1666576745,0.19294804015,54.0,580.26953125,528.94140625,29.18458293,-120.6018185,-149.39818150000002,115.67542955,105.8719977,-120.6018185,1
179,179.0,-4.1993409475,-2.4743824625,8.731826089,10.0000916115,-45.45449388,-4.1995556245,-2.4742725195,8.731563205499999,9.999924975,-15.821411165,-25.68399494,301.53333333333336,264.6,392.6,259.0,1.0,0.0,1.0,0.0,9.761339999999783e-07,0.0009141921291,0.001875086133,0.00241528984,-0.076097738175,-0.055936907965,0.16822192785,0.1929263460999999,10.0,580.26953125,528.94140625,29.170325735,-120.50793145,-149.49206855,115.68399495,105.82141115,-120.50793145,1
180,180.0,-4.196835459,-2.4778651925,8.729545409,9.997910807,-42.668224485,-4.196568377,-2.4782801235000003,8.729879263499999,9.9981930605,-15.84649182,-25.67648793,300.3333333333333,265.4,391.73333333333335,259.8,1.0,0.0,1.0,0.0,-0.000169763259,0.00077030079098,-0.0012594311846,0.00234335050285,-0.07235218512,-0.05688622822,0.1694149002,0.19280213785,19.0,580.26953125,528.94140625,29.174753895,-120.5581481,-149.44185184999998,115.67648795,105.8464918,-120.5581481,1
181,181.0,-4.197598442,-2.4817109825,8.7294203585,9.999076031,-42.408319095,-4.197349998,-2.4813949675,8.729324572,9.9988095625,-15.8700655,-25.68087639,299.3333333333333,265.93333333333334,391.4,260.6666666666667,1.0,0.0,0.0,0.0,0.00093456372215,4.407054224999999e-05,0.0019085082767499,0.0023522429499999,-0.06947552491,-0.05879970258,0.16951033275,0.1924024645499999,38.0,580.26953125,528.94140625,29.18817844,-120.59248135,-149.40751865,115.68087635,105.8700655,-120.59248135,1
182,182.0,-4.1981613475,-2.4755473025,8.7303085005,9.998558953,-40.300095,-4.1982328875,-2.4754137615,8.7302512685,9.998505941,-15.82765,-25.67485098,296.8,267.0,392.53333333333336,261.73333333333335,1.0,1.0,0.0,0.0,0.00045199467954,-0.0001920446887,0.00088276895155,0.0013300710535,-0.072641950125,-0.057175044375,0.16822316425,0.1919545375999999,34.0,569.9676011029412,551.0129825367648,29.16553417,-120.528565,-149.471435,115.674851,105.82765,-120.528565,1
183,183.0,-4.196797268,-2.4802689305000003,8.729497713499999,9.9984506015,-46.47176034,-4.196983272,-2.4807554014999997,8.729421405,9.998582869,-15.861167855,-25.67640647,297.3333333333333,267.46666666666664,390.8,262.06666666666666,1.0,0.0,1.0,0.0,0.0001177732615755,-2.3342449149999997e-05,-0.0019437893205,0.001977497629,-0.076353337215,-0.05884620806,0.1653199255,0.1913768585499999,37.0,621.3575802364865,580.8246410472973,29.180852985,-120.5826753,-149.4173247,115.67640645,105.86116785,-120.5826753,1
184,184.0,-4.197307641,-2.4819477315,8.7294214295,9.999014121,-37.04258375,-4.197307641,-2.4814707995000003,8.7295549685,9.999012138,-15.87150118,-25.679320705,297.4,266.6666666666667,391.26666666666665,261.0,1.0,1.0,1.0,0.0,0.0005782561041,-0.0001697632618,0.0037369137509999,0.0037861342725,-0.0810886696,-0.062292026355,0.1646100878999999,0.1938125614,27.0,806.296875,582.05078125,29.187532685,-120.59663515,-149.40336480000002,115.6793207,105.8715012,-120.59663515,1
185,185.0,-4.198423655499999,-2.4786330535000003,8.729698016,9.998900789,-37.67310776,-4.198328269,-2.4788762885,8.729593093,9.9988295075,-15.850894675,-25.684562829999997,300.4,268.1333333333333,392.46666666666664,262.26666666666665,1.0,0.0,1.0,0.0,0.00031830611235,0.001216990369,-0.0026239033855,0.0029621757195,-0.07606997897,-0.05932089695,0.16731697725,0.19317635335,23.0,806.296875,582.05078125,29.183119660000003,-120.556429,-149.44357100000002,115.6845628,105.8508947,-120.556429,1
186,186.0,-4.195399891499999,-2.488209851,8.7293260185,9.999685358,-40.295277015,-4.1957718985,-2.4880429245,8.729306941499999,9.999783385,-15.90968836,-25.66939629,300.3333333333333,268.0,392.73333333333335,262.8,1.0,1.0,1.0,0.0,0.000659954673115,8.275958919999999e-05,0.001282773628,0.0033616912069999,-0.07315414677,-0.058889863585,0.1679585395,0.1924411669,27.0,806.296875,582.05078125,29.19553791,-120.67135305,-149.32864695,115.6693963,105.90968835,-120.67135305,1
187,187.0,-4.1983998155,-2.4815137235,8.728262456500001,9.9983517715,-38.10830242,-4.198166119,-2.4815757245,8.72831015,9.998310698,-15.870867865,-25.68811712,300.4,269.53333333333336,393.06666666666666,264.53333333333336,1.0,0.0,1.0,0.0,-0.0001633971377,0.0002206922379,9.44308133e-05,0.0007655566125,-0.0754589338399999,-0.05777547653,0.16786691865,0.1929098933999999,3.0,806.296875,582.05078125,29.19435514,-120.58570935,-149.41429065,115.6881171,105.87086785,-120.58570935,1
188,188.0,-4.197808392,-2.4850144055000003,8.728491409,9.999174769,-34.731763125,-4.1980373195,-2.4850477905,8.728329252,9.9991374835,-15.89172987,-25.68437417,299.4,271.4,390.46666666666664,266.6666666666667,1.0,0.0,0.0,0.0,7.639346694e-05,0.00040530978205,-0.0024827876765,0.002742563473,-0.077641447195,-0.053474566015,0.16790132735,0.19255913045,81.0,877.5235339506173,467.43359375,29.20010576,-120.62463645,-149.37536355,115.6843742,105.89172985,-120.62463645,1
189,189.0,-4.1966351435,-2.48441824,8.73016066,9.9999899355,-53.281968335,-4.1963632925,-2.4843943934999997,8.73036574,10.0000488505,-15.90793498,-25.67857998,302.3125,271.9375,394.5,267.3125,1.0,0.0,0.0,0.0,0.00081698568855,0.0001283834662,0.003182000103,0.0033772443535,-0.076042227285,-0.05578321239,0.1688150006,0.1933992400999999,16.0,893.952392578125,474.557373046875,29.20220799,-120.6581179,-149.3418821,115.67858,105.907935,-120.6581179,1
190,190.0,-4.1979228825,-2.481561417,8.730456358000001,10.000078745500002,-52.71772616,-4.197813188,-2.4817044965,8.730527897,10.000130742,-15.867371425,-25.679949685,301.6,271.06666666666666,393.8666666666667,266.8666666666667,1.0,0.0,0.0,0.0,9.7613874435e-05,0.00067268691555,-0.0011193764952,0.00205010317265,-0.072126051905,-0.058580092315,0.17014066815,0.19386201275,7.0,895.80078125,476.7767857142857,29.186293405,-120.5890477,-149.41095224999998,115.6799497,105.8673714,-120.5890477,1
191,191.0,-4.197364864,-2.490613589,8.7285438535,10.00042629,-38.0302444,-4.1973362485,-2.4904752785,8.728615395999999,10.00044236,-15.925630325,-25.681877125,302.0,271.06666666666666,393.6666666666667,266.6,1.0,0.0,1.0,0.0,0.000806375484385,-0.00028223142,0.0015586389225,0.0044183292425,-0.07355060206,-0.058465096035,0.1702425711,0.1944517199,0.0,0.0,0.0,29.21231727,-120.68385835,-149.31614165000002,115.68187715,105.9256303,-120.68385835,1
192,192.0,-4.199539681499999,-2.479811076,8.7295072605,9.9994947705,-44.902330355,-4.199844918,-2.4797872290000003,8.729326024,9.9994589255,-15.85837901,-25.691001495,302.26666666666665,271.93333333333334,394.8666666666667,267.93333333333334,1.0,0.0,1.0,0.0,-2.652550935000001e-05,0.0002907195826,0.000949613234,0.002256520534,-0.074620788905,-0.0610708021,0.1682396452,0.1939219212,0.0,0.0,0.0,29.191453455,-120.5616793,-149.43832070000002,115.69100145,105.858379,-120.5616793,1
193,193.0,-4.1966780759999995,-2.488391085,8.7289873975,9.999972059,-48.504760115,-4.196162987499999,-2.4885293954999996,8.729044629,9.9998402935,-15.91137203,-25.677079375,302.26666666666665,271.93333333333334,393.93333333333334,268.06666666666666,1.0,0.0,1.0,0.0,-0.00020265489153,0.0006610156895,-0.0029156839835,0.003113908093,-0.07673290926,-0.054375596915,0.16940650395,0.19376481645,0.0,0.0,0.0,29.20245256,-120.6655091,-149.3344909,115.67707935,105.911372,-120.6655091,1
194,194.0,-4.1963537715,-2.4840796185,8.7299651075,9.9996171485,-46.204504375,-4.1966923949999995,-2.483884076,8.7299984935,9.9997398695,-15.883506445,-25.672844464999997,301.0,272.73333333333335,395.2,268.93333333333334,1.0,0.0,0.0,0.0,0.000655710592265,0.0002461567259499,0.0038133072149999,0.004039113951,-0.072561446045,-0.0589397549949999,0.1694881204,0.1935803984,42.0,893.6646205357143,481.1213727678572,29.18732988,-120.6238886,-149.3761114,115.67284445,105.88350645,-120.6238886,1
195,195.0,-4.2002374125,-2.479741959,8.723355175,9.994401076,-45.51787282,-4.2000881515,-2.4798063065,8.723206984,9.994224935999998,-15.868580905,-25.710510045,299.2,275.53333333333336,395.4,270.8666666666667,1.0,0.0,0.0,0.0,-0.0001771904025499,0.0004307742711,-0.0015862254595,0.0016535571025,-0.07292163698,-0.052729772055,0.1660036836,0.1888268832,0.0,0.0,0.0,29.21149118,-120.5568179,-149.4431821,115.71051,105.8685809,-120.5568179,1
196,196.0,-4.195872058000001,-2.4873275264999997,8.713735122500001,9.986056573,-43.245669765,-4.195824365,-2.487399066,8.713654043,9.985983566000002,-15.93134799,-25.71193084,300.53333333333336,276.4,395.2,271.26666666666665,1.0,0.0,0.0,0.0,0.00044775059805,9.54918328e-05,-0.0002599499919999,0.0028831226845,-0.07353791114,-0.0518553256999999,0.1565903848,0.1806069292,0.0,0.0,0.0,29.23895214,-120.65960875,-149.34039124999998,115.71193085,105.931348,-120.65960875,1
197,197.0,-4.1990961365,-2.4801020045,8.7084698165,9.981020255,-44.605091044999995,-4.1993012175,-2.480068619,8.7083887355,9.981027499,-15.90255541,-25.73225178,301.53333333333336,276.8,395.0,272.3333333333333,1.0,0.0,0.0,0.0,0.00039682162005,0.0005029236584,0.0021156746265,0.002276982105,-0.07111219884,-0.0544959135,0.1504708927,0.1751378812,0.0,0.0,0.0,29.24328122,-120.5889711,-149.4110289,115.7322518,105.9025554,-120.5889711,1
198,198.0,-4.198552427999999,-2.4822625069999997,8.7061423685,9.9792982255,-47.10135864,-4.198356886,-2.482410356,8.706213910999999,9.979315234,-15.913712015000002,-25.745770875,303.2,277.06666666666666,396.06666666666666,273.06666666666666,1.0,0.0,0.0,0.0,0.000250400808395,0.0005941714071,-0.002444590943,0.0025739221259999,-0.06738073107,-0.05460493716,0.1496625476,0.1729763468,0.0,0.0,0.0,29.258875165,-120.59236465,-149.4076353,115.7457709,105.913712,-120.59236465,1
199,199.0,-4.197965803000001,-2.4838745375,8.7072440715,9.9804141325,-46.73031467,-4.1979944190000005,-2.4835597619999996,8.7072154555,9.980322917,-15.92160835,-25.739801935000003,303.2857142857143,276.85714285714283,395.2857142857143,272.7142857142857,1.0,0.0,0.0,0.0,0.00072467691555,0.00052096100385,0.0031236439825,0.0032940489155,-0.065701283515,-0.05481062643,0.1516842544,0.17416188685,0.0,0.0,0.0,29.257369245,-120.61216495,-149.387835,115.73980195,105.92160835,-120.61216495,1
200,200.0,-4.200517394,-2.4790193685,8.706571598,9.979693035,-46.91889506,-4.200560318,-2.4791338325,8.7065906755,9.979756173,-15.893226515,-25.755155615,301.06666666666666,275.8666666666667,395.2,272.0,1.0,0.0,0.0,0.0,-0.000158092035805,0.00026313305289,-0.00140479097575,0.0015782348229,-0.06398828425,-0.05362242271,0.1521173733999999,0.17357407565,0.0,0.0,0.0,29.25787997,-120.5478303,-149.45216965,115.7551556,105.8932265,-120.5478303,1
201,201.0,-4.196162988999999,-2.4903751224999997,8.707511156999999,9.9815093045,-44.27347763,-4.1962965305,-2.4904705089999997,8.707458694,9.981543244,-15.96069011,-25.72948689,300.1333333333333,275.6666666666667,395.06666666666666,271.8,1.0,0.0,0.0,0.0,0.00070557854905,-2.228142785000003e-05,0.0005294491554999,0.003881584117,-0.06518854892,-0.052963609985,0.15415779135,0.1756334999,0.0,0.0,0.0,29.265454585,-120.6886489,-149.31135104999998,115.7294869,105.9606901,-120.6886489,1
202,202.0,-4.1976748745,-2.481237103,8.713324961000001,9.984940972,-42.67792047,-4.197722568,-2.4811035615000003,8.7133965015,9.9849902305,-15.895020535,-25.722605485,302.26666666666665,276.1333333333333,396.26666666666665,272.46666666666664,1.0,0.0,0.0,0.0,0.0001633971376499,0.00099205405005,0.00136128914045,0.002272354109,-0.064555332005,-0.05602084801,0.1563222209999999,0.17818742375,0.0,0.0,0.0,29.2323344,-120.58724575,-149.41275425,115.7226055,105.8950205,-120.58724575,1
203,203.0,-4.198871978,-2.482548666,8.7173788725,9.989308162,-49.757717635,-4.1990579815,-2.482911135,8.717574414000001,9.989647014,-15.895971455,-25.71857455,302.6,278.06666666666666,396.3333333333333,273.8666666666667,1.0,0.0,0.0,0.0,4.5623876099999995e-05,0.0006652597748,-0.0022069223788,0.0023908768195,-0.063257224975,-0.05088471456,0.1635757007,0.1826189992,76.0,1031.766447368421,102.85634251644736,29.2294822,-120.59335285,-149.40664715,115.7185745,105.89597145,-120.59335285,1
204,204.0,-4.19527589,-2.4913003710000003,8.7204455535,9.9926533385,-46.327280845,-4.195042193,-2.491281294,8.720312012,9.992433557,-15.94384578,-25.691512275,298.6666666666667,278.0,393.4,274.26666666666665,1.0,0.0,0.0,0.0,0.000447750598,0.000179312443299,0.0030737760006,0.00362343106415,-0.066739432885,-0.05228624607,0.1660090217,0.1864073871,60.0,921.1242838541668,344.894140625,29.227744960000003,-120.7032792,-149.2967208,115.6915123,105.9438458,-120.7032792,1
205,205.0,-4.1984331919999995,-2.4819906555,8.7254581,9.996036385,-50.48084097,-4.198552425000001,-2.4814994155,8.725415177,9.9959270635,-15.87452746,-25.68181309,300.6666666666667,278.4,395.8,274.46666666666664,1.0,0.0,0.0,0.0,0.00063979528595,9.761387534999998e-05,0.0010546542474999,0.003188352294,-0.063944056155,-0.0611286802299999,0.1680161704,0.18989073755,35.0,837.9493303571429,514.2042410714286,29.19079691,-120.5988755,-149.4011245,115.6818131,105.8745275,-120.5988755,1
206,206.0,-4.1961677665,-2.4845422425,8.727046275,9.997106191,-51.51195358,-4.196048533000001,-2.484580397,8.727079659000001,9.9970945165,-15.891358675,-25.679334259999997,301.3333333333333,278.8,396.53333333333336,274.6666666666667,1.0,0.0,0.0,0.0,-1.0610203745e-05,0.00058886630695,-0.002656795015,0.0029966697149999,-0.0722177720249999,-0.051532098895,0.1686354428,0.1905580869499999,56.0,863.8055943080357,349.63302176339283,29.19586958,-120.62968555,-149.37031445,115.67933425,105.89135865,-120.62968555,1
207,207.0,-4.1968592295,-2.4850679365,8.728602923,9.998885386,-46.02557164,-4.1970257360000005,-2.484935254,8.7286418805,9.998956468,-15.89186371,-25.679031270000003,300.6,278.46666666666664,397.0,274.46666666666664,1.0,0.0,0.0,0.0,0.0005983815387,0.000743821966515,0.0026055307575,0.0029614964309999,-0.069139139995,-0.0554214659199999,0.17135508095,0.19292257645,16.0,877.31640625,304.36376953125,29.19582675,-120.6308525,-149.3691475,115.6790313,105.89186375,-120.6308525,1
208,208.0,-4.1978084025,-2.47956784,8.732120862,10.000989875,-43.550044674999995,-4.197708247,-2.4799541555,8.732230553,10.001139255,-15.852392545,-25.67507509,296.8666666666667,275.4,394.6,271.46666666666664,1.0,1.0,1.0,0.0,0.00033422141795,0.0005443034501,-0.00057931712445,0.00117766944965,-0.06820657809,-0.05327590243,0.1741101877499999,0.19443757955,23.0,885.86328125,351.95889945652175,29.17608053,-120.56957145,-149.43042855,115.6750751,105.85239255,-120.56957145,1
209,209.0,-4.1954762080000005,-2.4872702945,8.73092851,10.0008841265,-42.67141699,-4.1953903605,-2.4873132185,8.730794971000002,10.00074224,-15.901203885,-25.665697845,298.0,275.73333333333335,395.46666666666664,272.26666666666665,1.0,1.0,0.0,0.0,0.00062918508205,0.0004817032463,-0.002194190135,0.0023598783735,-0.07018309832,-0.05720116943,0.1725542322,0.19486930365,24.0,888.046875,406.20703125,29.189006105,-120.66138425,-149.33861575,115.66569785,105.9012039,-120.66138425,1
210,210.0,-4.1936448015,-2.4822386605,8.7332511685,10.00089314,-46.301573025,-4.1935828005,-2.482057426,8.7333942485,10.0009470385,-15.86665535,-25.649985365,299.73333333333335,277.0,396.73333333333335,273.4,1.0,1.0,0.0,0.0,0.00144510975,-0.0002610110121,0.006039327951,0.006215299755,-0.068330973905,-0.06027233152,0.1721554237999999,0.194784407,40.0,856.0755859375,474.388671875,29.161801805,-120.6214817,-149.3785183,115.64998535,105.86665535,-120.6214817,1
211,211.0,-4.1971979455,-2.4791529095,8.734424437000001,10.002641655,-42.997217865,-4.1972122535,-2.479138601,8.7344435145,10.002660765,-15.84551605,-25.66700655,298.2,276.4,395.73333333333335,273.1333333333333,1.0,1.0,0.0,0.0,-0.00043820141465,0.00089868425695,0.000112468158,0.0026007090165,-0.07097869032,-0.05089055492,0.1766527506,0.1971188598,54.0,798.3643663194445,602.2121672453703,29.16667401,-120.5671463,-149.4328537,115.6670065,105.845516,-120.5671463,1
212,212.0,-4.193888879499999,-2.489171594,8.7326044,10.002153075,-44.48896482,-4.194086115,-2.487211613,8.732620716,10.00176207,-15.909852715,-25.65294258,299.6875,276.875,396.25,273.6875,1.0,1.0,1.0,0.0,-0.00070777698325,0.00098062473575,-0.0034053066945,0.003629784107,-0.071855629405,-0.047733809195,0.17622948825,0.196265177,17.0,793.28515625,616.80078125,29.182333515,-120.6901251,-149.3098749,115.6529426,105.9098527,-120.6901251,1
213,213.0,-4.1966256015,-2.4790384455,8.734305180500002,10.00226906,-43.071900895,-4.1947798684999995,-2.485395951,8.733399015,10.00228305,-15.85071656,-25.65897269,298.5,277.0625,396.5,274.125,1.0,1.0,0.0,0.0,0.00064934446905,0.0001665801986,0.00416556598,0.0044418039045,-0.07043112093,-0.05207092297,0.17511367395,0.19580159865,45.0,793.28515625,616.80078125,29.16236198,-120.5848293,-149.4151707,115.6589727,105.8507166,-120.5848293,1
214,214.0,-4.196625628,-2.477922424,8.73444827,10.00211741,-42.117314805,-4.197093021500001,-2.478199045,8.7344864185,10.002415375,-15.839253200000002,-25.66509426,301.3125,277.75,397.3125,274.625,1.0,1.0,0.0,0.0,0.00025040080835,0.00016976326085,8.063754850000002e-05,0.001486134747,-0.07104880518,-0.05397456097,0.17484612765,0.1963216777,30.0,793.28515625,616.80078125,29.162504655,-120.55884975,-149.44115025,115.66509425,105.8392532,-120.55884975,1
215,215.0,-4.1953748525000005,-2.487543424,8.7323205,10.00212355,-43.462469845,-4.1950851255,-2.4874992220000003,8.732254378,10.001933135,-15.900464495,-25.66159117,298.4,277.4,397.06666666666666,274.3333333333333,1.0,1.0,0.0,0.0,0.000310878969715,-2.3342448200000003e-05,-0.0010366169105,0.003606770642,-0.07359057168,-0.0562832867599999,0.1716515965,0.19512035485,13.0,793.28515625,616.80078125,29.185365895,-120.66476615,-149.33523375,115.66159115,105.9004645,-120.66476615,1
216,216.0,-4.1953951355,-2.4781513520000003,8.734510288500001,10.00171336,-44.888193,-4.1956240625,-2.478108428,8.734572288999999,10.001852974999998,-15.83967356,-25.65608971,301.4,279.46666666666664,397.3333333333333,276.1333333333333,1.0,1.0,0.0,0.0,0.000223875299,6.578326325000001e-05,0.00353319783665,0.003632578902,-0.07815222645,-0.056962686525,0.17130832985,0.19678518565,33.0,889.5170454545455,432.8637547348485,29.155418555,-120.5696697,-149.43033029999998,115.6560897,105.83967355,-120.5696697,1
217,217.0,-4.176985427,-2.4589309865,8.7476688495,10.000806041,-45.411609584999994,-4.1770665055,-2.459193299,8.747840547,10.0010548965,-15.80002494,-25.68055109,301.7857142857143,280.7142857142857,393.92857142857144,276.92857142857144,1.0,0.0,0.0,0.0,0.0008233518149999,-0.0002610110214999,-0.0020435252145,0.010949629135,-0.07763200568,-0.047903527525,0.17205704815,0.19494558295,61.0,1024.131787909836,116.86834016393442,29.15859488,-120.4761048,-149.5238951,115.6805511,105.8000249,-120.4761048,1
218,218.0,-4.203107112,-2.4839031535,8.7310620495,10.00336635,-48.46220645,-4.203030803000001,-2.4840939265,8.730585115499998,10.002965405,-15.880545375,-25.706026100000003,299.46666666666664,279.1333333333333,397.93333333333334,275.3333333333333,1.0,1.0,1.0,0.0,-0.00022387529905,-6.04781574999999e-05,-0.002885975409,0.006035728363,-0.09604437819,-0.0562805917299999,0.1616471376,0.1965929755,75.0,840.3905729166667,126.0465625,29.212877050000003,-120.5817366,-149.4182634,115.7060261,105.88054535,-120.5817366,1
219,219.0,-4.208062454,-2.476048081,8.729454808,10.002099485,-50.18044393,-4.20830092,-2.475466224,8.729521580499998,10.002113925,-15.83561301,-25.73654362,302.4,278.6,398.4,275.3333333333333,1.0,1.0,1.0,0.0,0.00208066095625,-0.0062653253004999,0.007971446052,0.0103840081924999,-0.1093718217999999,-0.064711490025,0.1540295253499999,0.1998713389,53.0,680.6979658018868,229.5378095518868,29.218765745,-120.4728,-149.5272,115.7365436,105.835613,-120.4728,1
220,220.0,-4.209459872,-2.476439165,8.729345073000001,10.002689365,-51.17438692,-4.2092166365,-2.4769017895000003,8.729540614,10.002872175,-15.83817477,-25.744267245,301.6,277.93333333333334,398.1333333333333,275.06666666666666,1.0,1.0,0.0,0.0,-0.00042653019055,0.0005082287603,-0.004749127188,0.004811199167,-0.09772901982,-0.0505224131,0.1631725281,0.1967962131,79.0,214.0329806170886,67.97601859177215,29.226093205,-120.46843105,-149.5315689,115.74426725,105.83817475,-120.46843105,1
221,221.0,-4.2053176205,-2.484382241,8.7302100905,10.0036724,-47.89944364,-4.205615799,-2.4840176175,8.730098662,10.003609805,-15.88491517,-25.71998592,302.3333333333333,280.2,399.4,277.0,1.0,0.0,1.0,0.0,0.0011087662909999,-0.0003098179493,0.004218616998,0.004375565307,-0.090007229695,-0.060250780885,0.1651144646,0.1974916334499999,70.0,253.2106584821429,158.74626116071428,29.22600251,-120.5733407,-149.42665929999998,115.7199859,105.88491515,-120.5733407,1
222,222.0,-4.210628356,-2.4751276019999997,8.728963544500001,10.002522335,-49.204103825,-4.21045666,-2.475127602,8.729116162499999,10.002583245,-15.83086741,-25.751470464999997,299.53333333333336,277.8,396.93333333333334,274.46666666666664,1.0,1.0,0.0,0.0,9.018673185e-05,0.0001124681597,-0.0010143354780499,0.0013019385767,-0.08686196676,-0.058670501415,0.1655406474,0.19593637195,35.0,352.98158482142856,188.38046875,29.228859465,-120.44822855,-149.5517714,115.75147045,105.8308674,-120.44822855,1
223,223.0,-4.208114923,-2.4838029975,8.730103422500001,10.0046112,-48.603932175,-4.2081196925,-2.4839937705,8.7299078815,10.00448984,-15.881589205,-25.735159054999997,302.85714285714283,275.57142857142856,398.0,272.92857142857144,1.0,1.0,1.0,0.0,0.0002535838695,0.000697090385015,-0.0015575779095,0.00191020139935,-0.08511756437,-0.058279880725,0.1683094435,0.19741930305,0.0,0.0,0.0,29.23686488,-120.5508281,-149.4491719,115.73515905,105.8815892,-120.5508281,1
224,224.0,-4.208677703,-2.47844228,8.729054149,10.00260205,-50.371653115,-4.2084869304999994,-2.4785328975,8.729206767,10.002677245,-15.8663073,-25.72284813,307.6666666666667,274.53333333333336,404.3333333333333,272.73333333333335,1.0,1.0,1.0,0.0,0.0001188342819499,0.0001453597903499,0.0040955386425,0.004220659366,-0.07807305515,-0.061290837525,0.1695413681,0.1964690109,1.0,0.0,0.0,29.22051029,-120.5392094,-149.4607906,115.7228481,105.8663073,-120.5392094,1
225,225.0,-4.21045767,-2.4775294705,8.72898633,10.003066435,-49.26953288,-4.2106822479999995,-2.476813271,8.7286545545,10.002694915,-15.84541622,-25.75050082,325.8,255.2,414.73333333333335,259.8,1.0,1.0,1.0,0.0,8.368479896e-05,4.089172615000003e-05,-0.00336598527005,0.0035731068575,-0.0801761718,-0.05474314614,0.17027562005,0.196043587,0.0,0.0,0.0,29.234156255,-120.4735574,-149.5264426,115.7505008,105.8454162,-120.4735574,1
226,226.0,-4.21116244,-2.4964417,8.727256127,10.00657534,-48.318847535,-4.20878254,-2.4972095605,8.7283292255,10.006703715,-15.96326308,-25.75875473,347.0,246.6,436.5,255.4,1.0,1.0,1.0,0.0,0.007232975853,0.0050313586086,-0.0067767370995,0.0176652558424999,-0.069860531565,-0.062074603895,0.17628310805,0.201337777,0.0,0.0,0.0,29.290162605,-120.66043365,-149.33956634999998,115.7587547,105.9632631,-120.66043365,1
227,227.0,-4.2640016835,-2.5092569345,8.694824839999999,10.0042231215,-44.04967601,-4.283641772999999,-2.5147559685000003,8.6842035545,10.0047299185,-16.097165490000002,-26.12379651,341.3333333333333,243.77777777777777,432.44444444444446,257.6666666666667,1.0,0.0,1.0,0.0,-0.0023140854765,-0.00603614491635,0.0035087943249999,0.019278282745,-0.11913384381,-0.06792219423,0.14883403325,0.2096298772,1.0,0.0,0.0,29.64283691,-120.48152115,-149.51847885,116.12379655,106.0971655,-120.48152115,1
228,228.0,-4.2260975795,-2.52655441,8.703910768,10.000100184,-49.01102371,-4.207889569500001,-2.5211090025,8.7137260175,9.9997402325,-16.18689415,-25.89847141,336.77777777777777,281.44444444444446,431.55555555555554,279.44444444444446,1.0,1.0,0.0,0.0,-0.001855860645,0.0023367064295,0.003781328035,0.022242553205,-0.0268869686649999,-0.045544034945,0.1992912466999999,0.24195848365,1.0,0.0,0.0,29.496684525,-120.87330145,-149.12669855,115.8984714,106.18689415,-120.87330145,1
229,229.0,-4.2074900415,-2.530876216,8.715685757,10.0035746,-46.60371068,-4.207971747,-2.5312339155,8.715905148000001,10.004059225,-16.19233083,-25.76888695,335.7,262.2,427.9,270.8,1.0,1.0,1.0,0.0,0.002610110114,0.00045942182215,0.0038886396715,0.0060717037895,-0.075486572965,-0.06602262126,0.17047188775,0.1977889444,7.0,749.3387276785714,408.8627232142857,29.394942855,-121.02762175,-148.97237819999998,115.76888695,106.19233085,-121.02762175,0
230,230.0,-4.210089391,-2.5168067025000003,8.716658706,10.00196969,-45.688807795,-4.2103660115,-2.5168830115,8.716153156499999,10.00166372,-16.1052993,-25.780239135,332.4,237.8,423.2,260.3,0.0,0.0,1.0,0.0,0.00090823344235,0.0001103461124499,0.0034419500875,0.003843600871,-0.0751391252249999,-0.070243425365,0.16819241535,0.19717230295,63.0,732.0238785282259,345.5364163306452,29.367213005,-120.87119615,-149.12880385,115.7802391,106.1052993,-120.87119615,0
231,231.0,-4.2086252405,-2.5269272025,8.7153185395,10.002734895,-49.294071145,-4.209159404999999,-2.5272515165,8.7154425455,10.00314997,-16.13605647,-25.79360383,332.0,238.57142857142856,424.0,260.57142857142856,0.0,1.0,1.0,0.0,0.0005602187577,-0.00049337447415,-0.0004626048869999,0.0021376502255,-0.077880265775,-0.072697618375,0.16621405835,0.1974296066,0.0,0.0,0.0,29.39094509,-120.9069136,-149.0930864,115.7936038,106.1360565,-120.9069136,0
232,232.0,-4.2104041965,-2.5182851915,8.715223141500001,10.001219315,-46.41204151,-4.2099320334999994,-2.518099188,8.715308987,10.00104833,-16.11677925,-25.785612800000003,335.61538461538464,238.15384615384616,425.0769230769231,260.2307692307692,0.0,1.0,1.0,0.0,-0.0005082287594,0.0006726869173,0.00231302440605,0.003022956208,-0.076818337205,-0.0632086581849999,0.1676343308,0.19493243435,0.0,0.0,0.0,29.37638484,-120.88407745,-149.11592255,115.7856128,106.11677925,-120.88407745,0
233,233.0,-4.210086202499999,-2.522201424,8.716250748,10.00297148,-47.096259065,-4.2092486065,-2.5221968265,8.7164981255,10.00283651,-16.138712634999997,-25.781274615,332.8,239.7,423.2,261.7,0.0,1.0,1.0,0.0,-0.00032623406305,-0.0014225397105,-0.0029164818697,0.0032936877627,-0.0786744863,-0.05387441396,0.1689749554,0.1942478846999999,0.0,0.0,0.0,29.382215785,-120.92520705,-149.07479295000002,115.78127465,106.1387126,-120.92520705,0
234,234.0,-4.205439301,-2.530351576,8.713820942000002,10.00095869,-47.50140247,-4.206622100000001,-2.5300988020000004,8.713386931,10.00101374,-16.1924204,-25.76274605,332.8181818181818,239.0,422.45454545454544,262.1818181818182,0.0,0.0,1.0,0.0,0.0011533291463,0.00074377528605,0.0011363528084999,0.003377800001,-0.08656332837,-0.055158075245,0.1662688825,0.1954182850999999,0.0,0.0,0.0,29.390104335,-121.0347522,-148.9652478,115.76274605,106.1924204,-121.0347522,0
235,235.0,-4.2167092405,-2.5198590679999997,8.713692201499999,10.002937925,-47.949398395,-4.216556622000001,-2.5197255270000003,8.713611124,10.002769465,-16.129016695,-25.823159245,332.53846153846155,240.07692307692307,423.46153846153845,263.0,0.0,0.0,1.0,0.0,-0.0004371403952,4.774591405000001e-05,0.0004106148858499,0.0007555164756999,-0.0860675322149999,-0.0518872067199999,0.1685833951999999,0.1962671933499999,0.0,0.0,0.0,29.41172616,-120.8620775,-149.1379225,115.8231592,106.12901665,-120.8620775,0
236,236.0,-4.2197424875,-2.531958855,8.711908462,10.00572361,-44.23064196,-4.217534283,-2.5334039629999996,8.712099239,10.005324089999998,-16.205546575,-25.843917585,330.3,234.0,418.0,255.1,0.0,1.0,1.0,0.0,-0.0019055925842999,-0.00376768335355,-0.008407525446,0.0097615694235,-0.0841231007999999,-0.054714829905,0.1697943359499999,0.1975417656,0.0,0.0,0.0,29.460736835,-120.9647596,-149.03524034999998,115.8439176,106.20554655,-120.9647596,0
237,237.0,-4.1251188975,-2.552901012,8.740963197,9.9969945845,-38.345006940000005,-4.125595831,-2.5531299384999997,8.742980621000001,9.999008085,-16.44608512,-25.45609796,328.8333333333333,228.5,425.3333333333333,248.83333333333337,0.0,1.0,1.0,0.0,0.00621757938815,-0.007918395041,-0.00783563544,0.02116882048,-0.07468328057,-0.044010796275,0.17347451925,0.1940454371,0.0,0.0,0.0,29.25454591,-121.8031141,-148.1968859,115.456098,106.4460851,-121.8031141,0
238,238.0,-3.945043449,-2.524213521,8.8439092275,10.0076263105,-37.6451343,-3.9413901475,-2.5217048555000003,8.843394139,10.005214056,-15.929706145,-24.039676030000003,-1.0,-1.0,-1.0,-1.0,0.0,0.0,0.0,0.0,0.0128733602008499,-0.012104120595,-0.013565145527,0.05308687473,-0.0885208594949999,-0.062822414655,0.1721633709,0.2124619448,0.0,0.0,0.0,27.904943955,-122.6171708,-147.3828292,114.039676,105.9297061,-122.6171708,0
239,239.0,-3.9399212005,-2.4476753755,8.8651709135,10.0053074,-44.565503065,-3.9389864135,-2.4430205139999996,8.8641264275,10.002916528,-15.43484074,-23.961461435,331.0,279.0,432.0,274.0,1.0,0.0,0.0,0.0,0.0005474864615,-0.0013326416347,0.013349758335,0.0195364703774999,-0.0598525832749999,-0.023545379175,0.174337112,0.189031948,0.0,0.0,0.0,27.61888223,-121.85165805,-148.14834195,113.96146145,105.43484075,-121.85165805,0
240,240.0,-3.9905519035,-2.4330472060000004,8.842043066999999,10.0013810335,-48.40135377,-3.9922231885,-2.4382353925,8.8436827835,10.004748668,-15.38492348,-24.29022106,313.0,233.0,411.5,252.5,0.0,0.0,1.0,0.0,-0.0014320464169999,0.004993620258,-0.005829589711,0.013241883643,-0.073436531955,-0.060913749155,0.17987262185,0.20728153105,2.0,0.0,0.0,27.860039145,-121.36873805,-148.6312619,114.2902211,105.3849235,-121.36873805,0
241,241.0,-3.993413908,-2.4903798960000003,8.8263962395,10.0027602805,-45.60364456,-3.997191213,-2.4902272775,8.824836668500001,10.0028612455,-15.75652899,-24.343899389999997,309.375,232.0,410.0,251.5,0.0,0.0,1.0,0.0,-0.0073401389184999,0.0021931290833,0.0043618547337,0.010253263082,-0.09114593584,-0.044334744145,0.16989556485,0.19795005535,0.0,0.0,0.0,28.06687955,-121.94829935,-148.05170065,114.3438994,105.756529,-121.94829935,0
242,242.0,-4.0342536315,-2.503815081,8.809512759499999,10.007595385,-47.20161297,-4.0308054095,-2.5033238410000003,8.810213849,10.00669981,-15.86606545,-24.60506177,290.7142857142857,232.0,388.7142857142857,244.92857142857144,0.0,1.0,1.0,0.0,0.00272363928525,-0.006203786141,-0.001220173431425,0.0084726088949999,-0.07436312056,-0.04486812657,0.1731477524,0.19371529115,1.0,0.0,0.0,28.323409920000003,-121.8253355,-148.1746645,114.6050618,105.86606545,-121.8253355,0
243,243.0,-3.9892503075,-2.477722113,8.830621896,10.0016704965,-40.776903275,-3.9888019915,-2.477993964,8.831337304,10.00218883,-15.673236459999998,-24.311171115,293.5,234.41666666666663,393.6666666666667,248.16666666666663,0.0,0.0,1.0,0.0,-0.0007087616130999,0.0052711492635,-0.0030451284705,0.0063084246665,-0.0802425865299999,-0.051040946595,0.17590799785,0.2001603256,0.0,0.0,0.0,28.003842065,-121.84419885,-148.15580115,114.3111711,105.67323645,-121.84419885,0
244,244.0,-4.013096892,-2.494662743,8.8166285835,10.00306229,-36.8825529,-4.014489534,-2.4947772065,8.816189798,10.003261935,-15.82167281,-24.49767077,303.0,235.25,402.25,251.0,0.0,1.0,1.0,0.0,-0.0004318352961,0.0014058520073,0.00107799670036,0.0021000803708,-0.07925369847,-0.04625923492,0.1736357553,0.1964734585999999,1.0,0.0,0.0,28.21827133,-121.876977,-148.123023,114.4976708,105.8216728,-121.876977,0
245,245.0,-4.028554263,-2.496866169,8.8073283325,10.001631235,-40.566856355,-4.028654419,-2.4970187875,8.807280639,10.001667954999998,-15.82796335,-24.57980047,279.5,271.0,393.5,264.5,0.0,1.0,0.0,0.0,-0.0002504008029499,0.0011469630232,-0.001633971376,0.002888269538,-0.081027604285,-0.04692418613,0.1717932716,0.19567488495,1.0,0.0,0.0,28.28648141,-121.7903105,-148.2096895,114.57980045,105.82796335,-121.7903105,0
246,246.0,-4.0313395465,-2.5070534395,8.8045286735,10.00283675,-44.331454095,-4.031372932,-2.5073634455,8.804528675,10.00292779,-15.894085475,-24.60167619,-1.0,-1.0,-1.0,-1.0,0.0,0.0,0.0,0.0,0.00066313773405,-0.0018822501405,-0.0002811703975,0.0040971848295,-0.0925854004149999,-0.0517398358199999,0.16646308235,0.1974072721,1.0,0.0,0.0,28.33311787,-121.87710535,-148.12289464999998,114.6016762,105.89408545,-121.87710535,0
247,247.0,-4.0376445895,-2.4968375535,8.80351282,10.00193126,-44.458847934999994,-4.0384839905,-2.496608626,8.803302968,10.002028635,-15.834306925,-24.638088365,268.3333333333333,261.0,390.0,256.0,0.0,1.0,0.0,0.0,0.0008679146645,0.00071831079355,0.002771385218,0.003007826823,-0.086791809525,-0.05848445239,0.1641715419,0.1947109087,2.0,0.0,0.0,28.335757025,-121.73223575,-148.26776425,114.63808835,105.8343069,-121.73223575,0
248,248.0,-4.0413985225,-2.499479986,8.800487254,10.00144499,-45.451855025,-4.0410611405,-2.4996276065,8.800448373999998,10.0013113,-15.855396025,-24.66574208,-1.0,-1.0,-1.0,-1.0,0.0,0.0,0.0,0.0,-0.00042737476275,-0.0006053078786,-0.003690844234,0.003816049595,-0.094034110285,-0.053517589145,0.1646390774,0.197010948,2.0,0.0,0.0,28.367089845,-121.73547985,-148.26452015,114.66574205,105.855396,-121.73547985,0
249,249.0,-4.0457619744999995,-2.5004193135,8.799320589499999,10.002417565,-46.692891315,-4.0459384400000005,-2.50030485,8.7994541305,10.00257822,-15.86305325,-24.692078584999997,270.2,264.8,386.6,260.4,0.0,1.0,0.0,0.0,0.00023024142125,-0.0009443081323,0.0006610156934,0.00124578088825,-0.093355373305,-0.04571421996,0.16501179645,0.1950448042,0.0,0.0,0.0,28.391464315,-121.71751305,-148.28248695000002,114.6920786,105.86305325,-121.71751305,0
250,250.0,-4.0454090449999995,-2.4931270215000003,8.799973974,10.001028828,-44.483399935,-4.044636414999999,-2.4928122459999997,8.7999310495,10.0006001485,-15.817989905,-24.68856986,273.6,260.6,388.2,257.0,0.0,1.0,0.0,0.0,-7.74544864e-05,0.0002673771287795,-0.00067586997855,0.0010120264444,-0.09074957333,-0.041979917185,0.1681048513,0.19563262425,1.0,0.0,0.0,28.368868255,-121.64491595,-148.355084,114.68856985,105.8179899,-121.64491595,0
251,251.0,-4.046424910000001,-2.4987500515,8.798185493,10.00127095,-42.44020035,-4.0469495355,-2.499279446,8.7982427225,10.00166536,-15.81879924,-24.71567777,276.2,261.1,390.3,258.3,1.0,1.0,0.0,0.0,-0.00020159387115,0.001272163426,-0.000464726924,0.0024581488635,-0.079623206815,-0.04407099379,0.1705657220999999,0.19333755725,0.0,0.0,0.0,28.39085853,-121.6144139,-148.385586,114.7156778,105.8187992,-121.6144139,0
252,252.0,-4.0496298945,-2.4936707235,8.793344631,9.9970398945,-40.893339685,-4.0498111285,-2.493479951,8.79336848,9.997086719,-15.83260213,-24.727654695,277.38461538461536,260.3076923076923,392.0769230769231,255.53846153846155,0.0,1.0,0.0,0.0,0.00042759121105,-5.729510300000001e-05,0.0021040034025,0.002314492367,-0.0748949050899999,-0.05044404098,0.1683268396,0.19106444775,1.0,0.0,0.0,28.40647312,-121.62382375,-148.37617625,114.7276547,105.83260215,-121.62382375,0
253,253.0,-4.050321446,-2.4933511795000003,8.791813666,9.995893761,-40.404172275,-4.049653741,-2.4938328810000003,8.792095055,9.995990896,-15.833292895,-24.73516287,280.0,261.0,394.0,256.0,0.0,1.0,0.0,0.0,-0.0001517259135499,0.00100903037505,0.000760751605,0.0018468015805,-0.0723382613849999,-0.05234283929,0.1672968397,0.1896385681,2.0,0.0,0.0,28.41277126,-121.61617805,-148.38382195,114.7351629,105.8332929,-121.61617805,0
254,254.0,-4.0477173964999995,-2.499799302,8.7921093585,9.996711743,-42.50949905,-4.0479415544999995,-2.4998183794999997,8.791694428,9.99644286,-15.87166591,-24.720430015,-1.0,-1.0,-1.0,-1.0,0.0,0.0,0.0,0.0,-0.0001474818320399,0.000405309782115,-0.0024976419579999,0.0025994967085,-0.066840862765,-0.0545180112099999,0.1702289941999999,0.1908414796499999,0.0,0.0,0.0,28.417870885,-121.69870705,-148.30129295,114.72043,105.8716659,-121.69870705,0
255,255.0,-4.048065556499999,-2.4995131424999997,8.793912179,9.9983657835,-40.893203365000005,-4.0485806435,-2.498864515,8.7940504885,9.9985334925,-15.866862025,-24.71784178,-1.0,-1.0,-1.0,-1.0,0.0,0.0,0.0,0.0,0.0005326322281,4.35018363e-05,0.0037263035529999,0.003857648625,-0.07104959102,-0.05575146167,0.1701672289,0.19264819375,1.0,0.0,0.0,28.413679885,-121.69359125,-148.30640875,114.71784175,105.86686205,-121.69359125,0
256,256.0,-4.051623471,-2.494057039,8.795032965,9.9994288975,-41.30178052,-4.051284849,-2.4942001185,8.795099733499999,9.999386136,-15.83204421,-24.73419006,-1.0,-1.0,-1.0,-1.0,0.0,0.0,0.0,0.0,0.00032679427625,-2.4403468599999993e-05,-0.00035438080415,0.00076448072745,-0.069831971055,-0.0538137919,0.17343775335,0.1945604488,2.0,0.0,0.0,28.411447355,-121.61519715,-148.38480285,114.73419005,105.8320442,-121.61519715,0
257,257.0,-4.0444217955,-2.5038723025,8.797822998000001,10.00142171,-43.408096385,-4.0444742575,-2.5039581505,8.797689459,10.0013466,-15.886424375,-24.688578415,-1.0,-1.0,-1.0,-1.0,0.0,0.0,0.0,0.0,0.00045305569991,-2.1220407499999907e-06,-0.0012742854749999,0.003581639421,-0.07297776497,-0.05630576849,0.171256106,0.1944874929,1.0,0.0,0.0,28.398952645,-121.7613276,-148.23867239999998,114.6885784,105.8864244,-121.7613276,0
258,258.0,-4.048213406,-2.4941953495,8.799435041999999,10.001955145,-41.23528881,-4.04797494,-2.494128579,8.799768894500001,10.002135615,-15.81198523,-24.71346361,-1.0,-1.0,-1.0,-1.0,0.0,0.0,0.0,0.0,0.00050610671865,0.0003458926421,0.00402126722,0.0040684686515,-0.07041720391,-0.06345930551,0.1733462991,0.19757676195,1.0,0.0,0.0,28.38610406,-121.6054169,-148.394583,114.7134636,105.8119852,-121.6054169,0
259,259.0,-4.0485186424999995,-2.4969567865,8.799978735,10.003246145,-45.006772299999994,-4.048547258499999,-2.4975863365,8.7998261145,10.003280790000002,-15.841066475,-24.705269675,-1.0,-1.0,-1.0,-1.0,0.0,0.0,0.0,0.0,-2.122040750000004e-06,0.000381967333865,-0.004022328215,0.0040530252505,-0.07542364749,-0.057839828825,0.1724111769,0.1968774298,2.0,0.0,0.0,28.39232053,-121.6645387,-148.33546130000002,114.70526965,105.84106645,-121.6645387,0
260,260.0,-4.0471832325,-2.5015067185,8.799368271,10.00330639,-42.063929365,-4.047073538,-2.500963016,8.7993015005,10.003067235,-15.869521825,-24.69960173,-1.0,-1.0,-1.0,-1.0,0.0,0.0,0.0,0.0,0.0008944401758,-0.000489130392635,0.0052318914705,0.005381812359,-0.073296621445,-0.06434640102,0.17088831965,0.1967717318,1.0,0.0,0.0,28.400310595,-121.7196054,-148.28039460000002,114.6996017,105.8695218,-121.7196054,0
261,261.0,-4.0517379345,-2.4951015205,8.799978773,10.004086535,-41.553053035,-4.051861937,-2.495220753,8.799954929,10.00414588,-15.82988713,-24.722566305,-1.0,-1.0,-1.0,-1.0,0.0,0.0,0.0,0.0,-0.00027480427605,0.0005389983492999,-0.0020636846265,0.0023310653824999,-0.0767952059,-0.056842158625,0.1734337648,0.1980228273,0.0,0.0,0.0,28.401219825,-121.62519195,-148.37480805,114.7225663,105.82988715,-121.62519195,0
262,262.0,-4.0465298354999995,-2.506299887,8.799306270999999,10.00418628,-42.378741325,-4.0466299915,-2.5058277245,8.7993396535,10.004137995,-15.898500725000002,-24.69624412,-1.0,-1.0,-1.0,-1.0,0.0,0.0,0.0,0.0,0.00022599733975,0.00074908038255,0.000293902649,0.004128709564,-0.07611740464,-0.056003783925,0.17528174175,0.1991370936,0.0,0.0,0.0,28.41037609,-121.7728299,-148.22717010000002,114.69624415,105.89850075,-121.7728299,0
