Time (s),Gyroscope x (rad/s),Gyroscope y (rad/s),Gyroscope z (rad/s),Absolute (rad/s)
0.0,-0.03426177973,-0.02252484795,0.01823208592,0.0448736814
1.0,-0.11263792281,0.38357902665,0.3527128822,0.56192126055
2.0,-0.02953986814999998,-0.37041918809999996,0.200609244095,0.5336140111000001
3.0,-0.60222773425,0.95568439405,-0.136545895115,1.166512143
4.0,0.73575609025,0.025791283550000016,-0.4169099188,0.94712422735
5.0,0.266516647725,-0.22393153154,-0.10604155941000001,0.3671189485
6.0,-0.005838795155,0.0136415389335,-0.004211189882199999,0.0173082948
7.0,0.0009729556790000001,-0.00268756461135,-0.004208006791,0.008163803231000001
8.0,-0.0038515039491,-0.0026780154225,0.0014207062660000001,0.006344552937
9.0,-0.0031056066404999997,-0.0033825329705,0.0005602187634,0.0049587646065000004
10.0,-0.0030111757948,-0.0028732431740000003,0.0007480193647999999,0.004829290836
11.0,-0.00047670372199999997,-0.000618078318,0.0008396533231499999,0.00168609467505
12.0,0.00056590617055,-0.00128459068265,-0.002499832728,0.002920498001
13.0,0.000220692237895,0.00055809671795,0.00127959056705,0.0021719281067
14.0,-0.001042983025255,-0.0029676739848500003,-0.00171885300305,0.00394090833235
15.0,0.0009379420091999999,-0.00014217673399999993,-0.0022780107311,0.0035781705729999998
16.0,-0.00013901892405,0.0004537967271,-0.0003201502630000001,0.0022222274345
17.0,0.0013559840322,-0.002176152784,-0.002844595619,0.0038992545355
18.0,-0.001597896682,0.00119789200345,0.002779873374,0.003751559474
19.0,0.00044138447565,-0.000651466512,-0.0003289163159999999,0.004192767025
20.0,0.00080743650485,0.0001336885615,0.0013241534255,0.006336027935
21.0,2.1220407500000015e-05,0.001453597907,0.0014833064825,0.0038502730465
22.0,0.0065560448955,-0.008211236663,-0.005152314928500001,0.0123450628015
23.0,-0.0028636940150000003,0.00067056486,-0.001782514255,0.024430836725000002
24.0,0.005110935138,0.00138038750905,0.006945439332,0.008778955699
25.0,-0.0005421814132,0.0030281521655,0.0029252331754999997,0.009399639904
26.0,-0.0048955480165,-0.00028329244950000003,-0.0025549370630000004,0.006893349658
27.0,-0.00086473158574,-0.0034345229625,-3.7135723305e-05,0.0036611649285
28.0,0.002388356851,0.0024753605195,0.0012636752548,0.0039157559739999995
29.0,-0.00279897174415,-0.002339549926,0.0002143261215000001,0.0052892454660000005
30.0,-0.0001506648904,-0.0020700507514999997,-0.0017071817815000002,0.0051280330515
31.0,-0.00021857019715,-9.867489484999999e-05,-0.00011671224117,0.0005724179626
32.0,0.0003236112142265,-0.001061020375185,-0.001392058736,0.0034851562844999996
33.0,0.0002588889714,0.00147587933985,0.0018355652431,0.0027003900344999996
34.0,0.0010758746577,-0.00258782868038,-0.0035151605014500003,0.004874565376
35.0,0.000268438154765,0.0002482787667,0.00115757322785,0.0020433903542
36.0,0.00058886630785,-0.0027289443975,-0.0033475192695,0.004394244622
37.0,0.00105041017095,0.00122441751005,0.0015522728030500001,0.00232900584295
38.0,-0.0003777232533,-3.607468899999994e-05,0.00015596999506,0.001621873922
39.0,0.00038939447765,-0.0020414031985,-0.0016339713758500001,0.003792886677
40.0,0.00011989530350000005,0.0030865082655,0.0022451191103,0.00451451723
41.0,0.00034589264204999996,-0.0015437846375000001,-0.0013050550588,0.0039276449335000005
42.0,-3.289163160000001e-05,0.00197668095405,0.00222602074265,0.00354298007415
43.0,-0.00021008203415,0.00160850688598,0.0007448363039999999,0.0029545168595
44.0,0.00046260488329,-0.0017103648397499998,-0.0028085209182,0.0038753551302
45.0,-0.00010928509858500001,0.0020382201317,0.002893402552,0.0035575120735
46.0,-0.00029036307975000003,-0.0009213985815,-0.00207943865815,0.0023209990575
47.0,0.0006620767136499999,0.00039469957835000004,0.001543784645,0.0017470858529999998
48.0,0.00022918040090000002,-0.0011968309807,-0.0020753558522999998,0.00242933447715
49.0,0.00056340181888,0.001195769961,0.00129550587615,0.0019294631865
50.0,-2.0159387099999998e-05,0.0011013391494,0.0017782701465,0.0021025706945000003
51.0,0.0023406109342499998,-0.00029920774375,0.008577288707,0.0089436094395
52.0,0.0018761429251,0.004581320438999999,-0.0035711653816,0.0063712748705
53.0,-0.0034440721185,0.0006620767146,0.003149108464,0.004728971094999999
54.0,-0.00061645283745,-0.0006716258945,-0.000914599565,0.0045985643905
55.0,-0.000332099377235,0.00093263690905,0.0004901914125,0.0025057599735
56.0,0.00018886162665500002,0.000108224077255,-0.00092520976655,0.00098718937515
57.0,0.0010334338445000001,0.00028329243899999996,0.0008817079255,0.0051281733135
58.0,-0.00533735264665,-0.001237879734,-0.006197810441,0.0119741676425
59.0,0.00133103732365,-0.005976184513,-0.001156151474,0.007136342752000001
60.0,-0.0007910416245,-0.0011301734245500001,-0.0007542327002,0.002739081277
61.0,0.0015724321895,0.0030005656050000004,0.0025920727805,0.0095083515855
62.0,0.00068435814045,0.00024721773799999997,-0.00142919444365,0.0036892754275
63.0,-0.002248302159,-0.002717273173,-0.0032923462145,0.0049814600010000005
64.0,0.00047745916945,0.004331085163,0.0051459487959999994,0.006818730324
65.0,0.0012371497555,-0.00129126179185,-2.334244899999992e-05,0.0030144631355
66.0,-0.0011947089407000002,0.0017665989179,-0.00022811938049999999,0.0021480891565
67.0,8.594265035000002e-05,-0.00027374325584999994,-0.00065995467302,0.0012503709892
68.0,0.00053437654545,0.0007469074165,0.00165163099865,0.002900927216
69.0,0.000549608554,0.000350136724495,0.0003671130497,0.001418773799
70.0,0.0006440393664,-0.00131884832445,-0.0016679240286,0.0023075034225
71.0,0.00021318021361499997,0.0014341515286,0.001695752469,0.002262534555
72.0,-0.00014544467292,0.0004570748451,0.0005736470316,0.0007593611889000001
73.0,0.0009264914774500001,-0.0017325146966999999,-0.0020607392329500002,0.0031485619235
74.0,0.00022175325830000003,0.0025061301049999997,0.0026811984854999997,0.003708097401
75.0,0.00038833345707,2.8647550999999992e-05,0.00100796935505,0.002139685945
76.0,-0.00024085162589999998,-0.00047109304149999985,-0.0027215172635,0.003763832752
77.0,0.00037560121354999993,0.00087321976645,0.002974040105,0.0034919704159999997
78.0,-0.0005241440642499999,0.0013909977017,-5.411204100000001e-05,0.0023258503288
79.0,0.00114696302925,-0.0032626376469999997,-0.00239153992305,0.004457975497
80.0,5.411203540000003e-05,0.00159259158285,-3.1830620499999986e-06,0.0024774505635
81.0,0.00037454019324999996,-0.0007310430369999999,-0.0016360934148,0.0030688474540000003
82.0,0.001892860349,-0.00110558323375,0.00120107506,0.004941161628
83.0,-0.00183450420815,0.003071654,0.0027024188975,0.0069483651735
84.0,-0.00108224077895,0.00021963121550000009,-0.00143768260255,0.0030379089965000003
85.0,0.00035968590885000003,-0.0019299960555,0.0022122274769,0.0032638990010000002
86.0,-0.00272363928535,0.005652055497,0.00278836155137,0.0084501367725
87.0,0.002561303172945,-0.0067056487625000005,-0.0031883662105,0.0079950662085
88.0,0.0063523289695,-0.0073581763455,-0.021064437515,0.02338209101
89.0,-0.0033920821445,0.0068626797605,0.014248442595,0.016551248865
90.0,0.001268980373,-0.0014695132215,-0.013663820390499999,0.014175104575
91.0,0.0025804015525,-0.003590492925,-0.0080542056745,0.00927530254
92.0,0.0023565262425,-0.0066748791685,-0.014726962775,0.01643265944
93.0,0.005926859796,-0.0041973965875,-0.00806269383,0.01177738517
94.0,0.0042451425165,-0.0047406390199999995,-0.010752380455,0.012519167535
95.0,0.0024636893085,-0.0037496459955,-0.0079512866625,0.00914284064
96.0,0.00032997733645,-3.9257754785e-05,-0.00031830611326,0.0004970006386
97.0,0.00019841081,0.000215387136,3.7135713100000005e-05,0.0003264514054
98.0,0.00017294632105,-0.00032785529478999997,-0.0012923228163,0.0014656507335
99.0,0.00034695366245,0.001750683616,0.0029867723510000003,0.0034908809074999997
100.0,8.063754845000001e-05,9.8674893885e-05,-0.00099205405015,0.0010709960740999998
101.0,0.000188861626675,1.5915305649999992e-05,-0.00044987263870000004,0.0009518833703999999
102.0,0.0006616183519500001,0.00101991219845,0.0012280631774999997,0.0031186094465000002
103.0,0.00032679427535,5.4112037240000003e-05,3.925775385000001e-05,0.00043268592300000003
104.0,0.00022281427865,-5.517306225000002e-05,-6.2600202095e-05,0.00099891408935
105.0,0.0006734508520499999,0.00043226818965,0.0009776708555000002,0.0036889232295
106.0,0.00036817406995000003,0.0005103508001,0.00101964057985,0.0015691913772499998
107.0,0.00019359801975000001,8.340468774999999e-05,-0.0004111114426,0.00099431896855
108.0,0.0006557105912,-0.0001411157098,0.000621757941,0.0035480239134999996
109.0,0.0003968555727,0.0010598787165000002,0.00112816174288,0.0018406106815
110.0,0.0002334244824,0.00012838346435,-0.0013443128147,0.00144739724475
111.0,0.000268438154755,-0.000119895302295,-9.443080949999997e-05,0.002959392654
112.0,0.00029284162149999997,-1.8037342649999998e-05,-0.00037666223275,0.0010718442713
113.0,0.00013687162739500002,-0.00017931244515000003,-0.0007501414047999999,0.00084117510615
114.0,0.000697090386,0.00015915305649999998,-2.7586538999999815e-05,0.003858214525
115.0,0.00052802605225,0.0012845546303499999,0.002565610416,0.0030140155675
116.0,0.00016976325992,-0.0016403375010000001,-0.003549113136,0.0040614214235
117.0,0.00065889364695,-0.0009771997693500001,-0.0006058426394999999,0.002677427524
118.0,0.000549608554,-0.00046578794325,-0.00148542852255,0.0017450291824
119.0,0.0010567762923000001,-0.00065040548955,-0.00236925849915,0.0032612122765
120.0,0.0010514711911,0.0019501554415,0.0042387763915,0.0047999907045000005
121.0,-0.000785155077,0.0007830330336,0.0006567716144999999,0.0023952166245
122.0,0.00037560121255,-0.0015246862771,-0.002581462563,0.00316359133
123.0,-0.001289139759,0.0038292225165,-0.0043968684265,0.00979168286
124.0,-0.006936951231000001,0.01918324834,0.010453172719,0.02311626567
125.0,-0.061445811975,0.049834005114999996,0.0029082569230000008,0.08053552154
126.0,0.029992923942,-0.019227811174999998,-0.0036329337120000003,0.037061519873
127.0,0.0029241721538600003,0.0001230783579,-0.0015543948605,0.0038223869114
128.0,0.00075226344535,-0.0005962934505,-0.00029071959450000006,0.005012788758
129.0,0.00013156652644999997,0.0016085068875,0.003003748669,0.00369511947
130.0,-0.0008106195661,-0.001309299142,-0.0047682255435,0.005051440354
131.0,0.001270041388,0.0008827689516,0.0039830704655,0.0043719411849999995
132.0,-0.0007023954879,0.0003915165182,-0.00014217673009999998,0.0012827553745
133.0,0.00037347917184999996,-0.001273224449,-0.0039862535395,0.004202908934
134.0,-0.02073552118705,0.042504476143499996,0.021998135502999998,0.053998526501
135.0,0.041307645145,-0.0220745291,0.0015225642200000014,0.06339817256
136.0,0.032258202305,-0.00683615421195,-0.013308378535,0.03644019382
137.0,0.009217084090000001,-0.0214050251745,-0.03217438191,0.05067022158
138.0,-0.079535148405,0.019800762214999997,0.018917993529999996,0.12479494555500001
139.0,-0.064180061385,0.055424521394999995,0.05936196797,0.105525907595
140.0,0.0135088900625,0.06924068302400001,0.067506008051,0.10429119591000001
141.0,-0.411095526,-0.041897571695,0.5019634334,0.6512271417
142.0,-0.04954752989445,-0.282806493385,0.027584407423399997,0.304847113
143.0,-0.010755563455000002,0.100649453365,-0.090432888635,0.17475305835
144.0,0.6704354317,-0.49214687535,-0.42224260645,1.7347952555
145.0,0.1966611878,-0.028087331281,-0.025314885700000005,0.39476925465
146.0,0.023180111985,-0.04415224089,-0.0019363620699999994,0.109331008325
147.0,0.004057342035000001,-0.006228189468,0.01607658074,0.075419693965
148.0,0.03457229045000004,0.18310559060999998,0.07550751559999999,0.8469242984500001
149.0,-0.94680365,0.5508414616499999,1.1891141835,1.6523344915
150.0,0.19970501311,0.29716258644,-0.496494265,0.7849893853
151.0,0.5149715443,0.007895051344999994,-0.27454008275,0.6062949393
152.0,0.072633210665,0.02203527125,-0.041340536915000003,0.09227437142
153.0,-0.054742285014999996,0.00037029608999999963,0.0012116852100000006,0.08260105397
154.0,0.0034737806620000005,-0.011317904372,0.0045687538045,0.017763679575
155.0,-0.0005931103834999999,0.001907714646,0.003354946403,0.0042395106145
156.0,-0.00025888896581000004,0.0008413891726,0.00433002414,0.0047133563365
157.0,-0.00028965856035,0.0029167449945000003,0.004049914766500001,0.005035423991
158.0,0.000557774541855,2.6061589999999994e-05,0.0020204448246,0.00263577800855
159.0,0.00019522774798,0.0010185795704,0.0020254878863,0.0024523298882499996
160.0,-9.761387074e-05,0.000489130399145,-0.00213265094995,0.0025555311491
161.0,0.00134749587355,-0.0014069130099000002,0.00329340724,0.0038503652425000002
162.0,-8.488163090000002e-05,0.0021549323766,-0.0005846222225000001,0.003932323456
163.0,0.00046684896290000004,-0.00014323774594,-1.1671223500000182e-05,0.006464563677000001
164.0,0.0027002968145,-0.004301376535,0.0043225970045,0.006714635314500001
165.0,0.0204840593605,-0.014499904470000002,-0.010063778186,0.0322906867
166.0,-0.002443529868,0.0038642362465,0.004474322863,0.0067625389795000004
167.0,-0.0038345277085,0.0058154525677,0.006455247866499999,0.0120819153655
168.0,0.00025782795473,0.0007989483328,-7.427142799999991e-05,0.0024046824215
169.0,0.000410614884,0.0006525275258,0.0012923228126000001,0.0017642761814999999
170.0,0.0012880787346,0.000274804277,0.0043374512814999995,0.0045492184505
171.0,-0.00050504569825,0.0006822361008,-0.000323611214205,0.00092226578655
172.0,0.0008615485441,-0.00025252285094999995,0.0005114118161,0.001492799794
173.0,0.0006599546729,-0.00047639814626000004,0.002872182151,0.0030435679745
174.0,9.86748948e-05,0.00051035080013,-0.001555455869,0.0017537388180000001
175.0,3.607469274e-05,0.00050610671675,-0.0020859660515500002,0.0022394371306
176.0,0.00049443549455,-0.0003490757032,0.0024870317570000002,0.002626439107
177.0,0.0001793124433,2.9708570450000002e-05,-0.00101539649815,0.0010541773834
178.0,0.0005453644722399999,0.00033952651784999996,2.4403469499999957e-05,0.0025211955205000003
179.0,9.761339999999783e-07,0.0009141921291,0.001875086133,0.0024152898400000003
180.0,-0.000169763259,0.00077030079098,-0.0012594311846,0.00234335050285
181.0,0.00093456372215,4.407054224999999e-05,0.0019085082767499998,0.0023522429499999997
182.0,0.00045199467954,-0.0001920446887,0.00088276895155,0.0013300710535
183.0,0.0001177732615755,-2.3342449149999997e-05,-0.0019437893205,0.001977497629
184.0,0.0005782561041,-0.0001697632618,0.0037369137509999997,0.0037861342725
185.0,0.00031830611235,0.001216990369,-0.0026239033855,0.0029621757195
186.0,0.0006599546731150001,8.275958919999999e-05,0.001282773628,0.0033616912069999996
187.0,-0.00016339713770000002,0.0002206922379,9.44308133e-05,0.0007655566125000001
188.0,7.639346694e-05,0.00040530978205,-0.0024827876765000003,0.0027425634730000002
189.0,0.00081698568855,0.0001283834662,0.003182000103,0.0033772443535
190.0,9.7613874435e-05,0.00067268691555,-0.0011193764952,0.00205010317265
191.0,0.000806375484385,-0.00028223142000000003,0.0015586389225000002,0.0044183292425000005
192.0,-2.652550935000001e-05,0.0002907195826,0.000949613234,0.002256520534
193.0,-0.00020265489153,0.0006610156895,-0.0029156839835,0.0031139080930000004
194.0,0.0006557105922650001,0.00024615672594999996,0.0038133072149999997,0.004039113951
195.0,-0.00017719040254999998,0.0004307742711,-0.0015862254595,0.0016535571025
196.0,0.00044775059805,9.549183279999999e-05,-0.0002599499919999999,0.0028831226845
197.0,0.00039682162005,0.0005029236584000001,0.0021156746265,0.0022769821050000003
198.0,0.000250400808395,0.0005941714071000001,-0.002444590943,0.0025739221259999997
199.0,0.00072467691555,0.00052096100385,0.0031236439825,0.0032940489155
200.0,-0.000158092035805,0.00026313305289,-0.00140479097575,0.0015782348229
201.0,0.00070557854905,-2.228142785000003e-05,0.0005294491554999998,0.0038815841170000004
202.0,0.00016339713764999998,0.00099205405005,0.00136128914045,0.002272354109
203.0,4.5623876099999995e-05,0.0006652597748000001,-0.0022069223788,0.0023908768195
204.0,0.000447750598,0.000179312443299,0.0030737760006,0.0036234310641500003
205.0,0.00063979528595,9.761387534999998e-05,0.0010546542474999998,0.003188352294
206.0,-1.0610203745e-05,0.0005888663069500001,-0.002656795015,0.0029966697149999997
207.0,0.0005983815387,0.000743821966515,0.0026055307575000002,0.0029614964309999997
208.0,0.00033422141795,0.0005443034501,-0.00057931712445,0.00117766944965
209.0,0.00062918508205,0.00048170324630000003,-0.0021941901350000003,0.0023598783735
210.0,0.00144510975,-0.0002610110121,0.006039327951,0.006215299755
211.0,-0.00043820141465,0.00089868425695,0.00011246815800000014,0.0026007090165
212.0,-0.00070777698325,0.00098062473575,-0.0034053066945,0.003629784107
213.0,0.00064934446905,0.00016658019860000005,0.00416556598,0.0044418039045
214.0,0.00025040080835,0.00016976326085,8.063754850000002e-05,0.001486134747
215.0,0.000310878969715,-2.3342448200000003e-05,-0.0010366169105,0.0036067706420000005
216.0,0.000223875299,6.578326325000001e-05,0.0035331978366500002,0.003632578902
217.0,0.0008233518149999999,-0.0002610110214999999,-0.0020435252145,0.010949629135
218.0,-0.00022387529905,-6.04781574999999e-05,-0.002885975409,0.0060357283630000005
219.0,0.00208066095625,-0.006265325300499999,0.007971446052,0.010384008192499999
220.0,-0.00042653019055,0.0005082287603,-0.004749127188,0.004811199167
221.0,0.0011087662909999999,-0.00030981794930000004,0.004218616998,0.004375565307
222.0,9.018673185e-05,0.00011246815970000003,-0.0010143354780499999,0.0013019385767000001
223.0,0.00025358386950000004,0.000697090385015,-0.0015575779095,0.00191020139935
224.0,0.00011883428194999998,0.00014535979034999998,0.0040955386425,0.004220659366
225.0,8.368479896e-05,4.089172615000003e-05,-0.00336598527005,0.0035731068575
226.0,0.007232975853,0.0050313586086,-0.0067767370995,0.017665255842499998
227.0,-0.0023140854765,-0.00603614491635,0.003508794324999999,0.019278282745
228.0,-0.0018558606450000004,0.0023367064295,0.003781328035,0.022242553205
229.0,0.002610110114,0.00045942182215,0.0038886396715000003,0.0060717037895
230.0,0.00090823344235,0.00011034611244999999,0.0034419500875,0.0038436008710000004
231.0,0.0005602187577,-0.0004933744741500001,-0.00046260488699999996,0.0021376502255
232.0,-0.0005082287594,0.0006726869173,0.00231302440605,0.0030229562080000003
233.0,-0.00032623406305,-0.0014225397105,-0.0029164818697,0.0032936877627
234.0,0.0011533291463000001,0.00074377528605,0.0011363528084999998,0.003377800001
235.0,-0.00043714039520000004,4.774591405000001e-05,0.00041061488584999997,0.0007555164756999999
236.0,-0.0019055925842999999,-0.00376768335355,-0.008407525446,0.0097615694235
237.0,0.00621757938815,-0.007918395041,-0.00783563544,0.02116882048
238.0,0.012873360200849998,-0.012104120595,-0.013565145527,0.05308687473
239.0,0.0005474864615000003,-0.0013326416347,0.013349758335,0.019536470377499997
240.0,-0.0014320464169999998,0.004993620258,-0.005829589711,0.013241883643
241.0,-0.0073401389184999995,0.0021931290833,0.0043618547337,0.010253263082
242.0,0.00272363928525,-0.006203786141,-0.001220173431425,0.008472608894999999
243.0,-0.0007087616130999999,0.005271149263500001,-0.0030451284705,0.0063084246665
244.0,-0.0004318352961,0.0014058520073,0.0010779967003600001,0.0021000803708
245.0,-0.00025040080294999996,0.0011469630232,-0.001633971376,0.002888269538
246.0,0.00066313773405,-0.0018822501405,-0.0002811703975,0.0040971848295
247.0,0.0008679146645,0.00071831079355,0.002771385218,0.003007826823
248.0,-0.00042737476275,-0.0006053078786000001,-0.0036908442340000003,0.003816049595
249.0,0.00023024142125,-0.0009443081323,0.0006610156934,0.00124578088825
250.0,-7.74544864e-05,0.0002673771287795,-0.00067586997855,0.0010120264444
251.0,-0.00020159387115,0.001272163426,-0.00046472692400000004,0.0024581488635
252.0,0.00042759121105,-5.729510300000001e-05,0.0021040034025,0.0023144923670000003
253.0,-0.00015172591354999999,0.0010090303750500001,0.000760751605,0.0018468015805
254.0,-0.00014748183203999997,0.000405309782115,-0.0024976419579999997,0.0025994967085
255.0,0.0005326322281,4.35018363e-05,0.0037263035529999998,0.003857648625
256.0,0.00032679427625,-2.4403468599999993e-05,-0.00035438080415,0.00076448072745
257.0,0.00045305569991,-2.1220407499999907e-06,-0.0012742854749999998,0.0035816394210000002
258.0,0.0005061067186500001,0.0003458926421,0.00402126722,0.0040684686515
259.0,-2.1220407500000042e-06,0.00038196733386500003,-0.004022328215,0.0040530252505
260.0,0.0008944401758,-0.000489130392635,0.0052318914705,0.005381812359
261.0,-0.00027480427605,0.0005389983492999999,-0.0020636846265,0.0023310653824999998
262.0,0.00022599733975,0.00074908038255,0.0002939026490000002,0.004128709564
263.0,0.00030239080305,-0.00016127510528,0.0006175138559,0.0009143282727
264.0,0.0001952277489,0.000384089375585,-0.0028870364345,0.0029983520855
265.0,0.00058037814855,7.002733100000005e-05,0.0039671551635,0.0042229214645
266.0,-0.00059204936525,-9.018673925e-05,-0.0013899366814999997,0.002722608962
267.0,0.0018971046200000011,0.040372886229999995,-0.00044032340499999996,0.05737525693
268.0,0.0074144103605,0.005078043507,0.0116054408905,0.01750632186
269.0,-0.010642034391,-0.029329786245000003,-0.02148990664,0.0382166845
270.0,0.0120075675945,-0.0025273505234,-0.00519687779975,0.013350404145499999
271.0,0.0022864989004999997,-0.00155015078,-0.0042133118875,0.0050874438725
272.0,0.0011002781276,-0.00025040080649999994,0.0006917852915,0.0038777638709999998
273.0,0.000531571208395,-0.00150028278625,0.0014599640332,0.00321834476
274.0,0.00029920775000000005,0.0026578560304999993,0.00102812873,0.011794134282
275.0,0.011248937954999998,-0.00793643234545,-0.01071524482,0.044951113685
276.0,-0.0012753464815,0.0012212344277,0.005106691059,0.006043628735999999
277.0,-0.00046154386264999996,-0.0011989530230000001,-0.0014907336197,0.0021905231725
278.0,0.0004747811541,0.000371603291515,0.0027167129575,0.0030549562985
279.0,0.00089656221663,0.0021740307455,-0.000524144065,0.0030676290135000003
280.0,0.0006143307968000001,-2.1220416499999816e-06,0.00019628877300000014,0.0034081213099999997
281.0,3.925775385000001e-05,0.00014429877089999998,0.001278529551,0.0014398226865
282.0,-0.00026843815568,-0.00028010937130000003,-0.0037135713035,0.003852196689
283.0,0.00096446752055,0.0010429830234500001,0.004699259235,0.005080490809999999
284.0,0.000400004681155,-0.00013474958569999998,-0.0005973544856,0.0017922179775
285.0,-0.0009517352757500001,0.00083183997285,-0.0033369090695000003,0.0035935053025
286.0,0.0007915211993499999,0.0006260020209,0.0031682068354999997,0.003389842352
287.0,0.00057295100025,-0.00056340181885,-2.334243805000001e-05,0.0013259776505
288.0,0.0006190841682,0.0002691596486,-0.0007120677625,0.004827343095999999
289.0,0.000520961003885,0.00094112507215,0.0021708476721999997,0.0032235898655
290.0,-0.0001082240782,-5.729510210000002e-05,-0.0026695272575,0.00273348965
291.0,0.0006641987544,0.00069921242585,0.0016520087228000001,0.00226267911985
292.0,0.00047109304625,0.0005867442671,0.0010493491504980001,0.0014664028445
293.0,-0.00043286236015,0.0007683442694500001,-0.0032496210505000003,0.0033695575905
294.0,0.00096446752215,0.0003713571311,0.0057655846955,0.005870171362
295.0,0.00025252284915,0.0005931103893,-0.0027491037875000002,0.0028265973675
296.0,-2.758653160000004e-05,0.0015087709699499999,-0.0004583608054999997,0.005275235075999999
297.0,-0.010016032345,0.0108287739575,0.0043109257835,0.015385295835
298.0,-0.0003632042634999998,-0.001445911842,0.003124263611,0.0098176080425
299.0,-0.005097141868,-0.006944378367,0.010364046998,0.015337435685000001
300.0,-0.00033258320625,4.3111375200000003e-05,0.0030862408997500003,0.0031512360101999997
301.0,0.0014517771984999999,0.00020472175914999996,-0.0019208840060000003,0.004125202971
302.0,0.00034270958095,-0.00010928509675,0.0006090256948499999,0.0007742302195
303.0,-0.00030981794215000004,-0.00021114305359,-0.002525228495,0.002712621823
304.0,0.0022048003355,0.0008785248684,0.00175917178095,0.003058182168
305.0,-0.0008318399736000001,-0.0005061067177,-0.002362892372,0.002585701893
306.0,0.0003780203391,0.0001258370164,0.00036179521249999984,0.004010305878
307.0,0.007135362025500001,-0.0007299820035000003,-0.0029634298810000004,0.01152299228
308.0,-0.003536380911,0.004490238216,-0.0034907570369,0.0076595640525
309.0,-0.0071831079165,0.00059311037185,0.004916768396,0.008825899229
310.0,-0.00077136181245,-0.00012944448845,0.0009379420110000002,0.0019572527663
311.0,0.0020806609535,0.0014344995444999999,-0.0036934119159999996,0.0045039992965
312.0,0.0008817079312,0.000110346118945,0.003953361909,0.004056155181
313.0,-0.00387590741515,-0.005919432654849999,-0.010147598843,0.012804353898
314.0,-0.022819365185,0.0047066864073,-0.021535530525,0.03232684047
315.0,-0.0007840940099999999,0.0124107552795,0.00350879438415,0.023369926620000002
316.0,0.004588913065,-0.0004891304149999999,-0.0009390030450000001,0.02765840769
317.0,0.010944425107,0.008441478111,0.0071258129690000005,0.017721339485
318.0,0.008176367165000004,0.055039302855,0.06665613077,0.122849219595
319.0,-0.0778820787,-0.1907290232,-0.294974274165,0.5290210641499999
320.0,-0.98693780895,0.77164616599,-0.7760759249,1.616017221
321.0,0.1865348086,-0.35387363789,0.03715056800000001,0.52077027945
322.0,0.09655391684999999,-0.09465999228000001,0.010319483400000003,0.33572542655000004
323.0,0.019566278449999974,0.21271018205000003,0.07622370355000001,1.056440465
324.0,0.04899261574999997,-0.33369515275,0.12725560095,0.6688112632500001
325.0,-0.245789613855,-1.3363731939,0.2659617328,1.387077207
326.0,-0.02442362678,0.13069012353999998,-0.07430537909,0.16624165215
327.0,0.022246414315,-0.056814457935,-0.009764570485500002,0.08188605204499999
328.0,0.0500302936655,0.033107018700000004,0.0254220482215,0.17377623965
329.0,0.3507404434,-0.7366717504,0.027619420965,0.8432302712499999
330.0,-0.18581225415,-0.47253285005,0.143234567185,0.54223170285
331.0,-0.05831049664999999,-0.55360435755,0.103628798765,0.88268815135
332.0,0.08783869459999999,-0.202330217885,0.212543601075,0.8712711731
333.0,-0.0038504414500000195,1.1063789974999998,-0.16639133751000001,1.3155205300000001
334.0,-0.1014123261,1.17120309915,-0.2485567546,1.396134971
335.0,0.07158810574,0.04994010659999998,0.08292298624,0.5318409234
336.0,1.201072941,0.0030472508500000023,0.04090127443,1.2196137255
337.0,-0.064019560798,0.08366113205499999,0.143271779075,0.198543050475
338.0,0.0015543945450000006,0.0542096531215,0.327284468035,0.40677294565
339.0,-0.126525618835,0.169626388495,0.1395411569,0.32996170820000004
340.0,0.08431716705,0.1229871165689,-0.2262806323,0.3843467666
341.0,0.23069129405,0.032965903950000014,-0.2908744915,0.48599722015
342.0,0.031832733,-0.1542670571,-0.051800075390000005,0.34944043345
343.0,0.0036371782500000116,0.19160966986,-0.06531004838,0.52048528045
344.0,-0.006420234435000005,0.07300350675,-0.036840749436000006,0.141593356655
345.0,0.00728920982,0.051345959120000007,-0.003039823339999999,0.08964309547
346.0,-0.0058769919305,-0.05200909681,-0.007021832783699999,0.0537134894
347.0,0.012301470187,-0.019519591779999998,-0.010281287465,0.02757991361
348.0,-0.00202018286075,0.0082335180785,0.011150263072999999,0.014689859190000001
349.0,0.0045103976615,-0.0048679614735,-0.0051056300465,0.00860175333
350.0,0.00017082431600000012,0.0013973638472,-0.004633475969,0.005297042908
351.0,0.0159545633205,-0.0235716286915,-0.0065634719935,0.032127631935
352.0,0.02407879633,-0.01176883798,-0.018107373691,0.03900189013
353.0,-0.022696286841000002,0.026615696035,0.020363103005,0.04318522574
354.0,-0.0040859895075,0.00166261889165,-0.0007639346837,0.004824141135500001
355.0,0.00033952651975,-0.001208502204,-0.0031363762139999998,0.0035210055745000003
356.0,-0.000311939990085,0.001577737294,0.001555455869,0.002248955871
357.0,0.0006270630403999999,-0.0007119446692999999,-0.0026695272535,0.0028557249874999998
358.0,0.000212204074,0.0006620767108999999,0.002111430542,0.002229234211
359.0,0.00055597467905,0.0008275958938500001,0.00074908038435,0.00164302338085
360.0,0.00041910304974999995,0.0007183107888499999,0.002123101768,0.0029317251725
361.0,0.0018185889200000001,-0.0012509430197499998,-0.0008700367049999999,0.0036010448989999997
362.0,-0.000923605299,0.0026700275745,-0.0013605214092999999,0.0040049382945
363.0,0.0001941667276,0.00105147118835,-0.00240851625,0.0026408669955
364.0,0.00015140760745000002,0.0008493765099500001,-0.001721212712,0.0062135418054999995
365.0,5.9417137235e-05,0.0011331697609500001,0.0037782935394999996,0.004010488401
366.0,0.00073122553165,-0.0014022615007,-0.00292340821165,0.0035537777295
367.0,0.00042971325164999996,0.0010334338448500001,0.0041114539395,0.004293849641
368.0,0.000150091941235,3.2955294685e-05,-0.00033302034289999996,0.0012057119770499999
369.0,0.0010710321655,-0.00048160563695,-0.002487248199,0.002922288867
370.0,0.00030134676266,0.0015659387465,0.002604928094,0.0031308440875
371.0,0.00046366590363,-0.0009241487453,-0.0030430064285,0.0032557186515
372.0,-0.0002737432566,0.0020339760532999997,0.0015002827975000002,0.005596702639
373.0,0.00024509570466500004,-0.00033634345965,0.00032891631615,0.0011514814557
374.0,0.0005198999985500001,-0.00094536916032,-0.002848839687,0.0031580950584999996
375.0,0.00046260488329999996,0.00125200403535,0.0035968590554999996,0.003923102421
376.0,0.00010631848559999998,0.00104991361315,0.00068818205785,0.001870695312
377.0,0.00049867957695,0.00032255019370000006,-0.0010737526190000002,0.004643052971
378.0,-0.00030132978634,0.0007267989554999999,0.002310902371,0.003871006409
379.0,0.00028541447979999997,-0.00089125711295,-0.003109850715,0.0032917637485000003
380.0,0.0006291850812,0.0004700320184,0.00223556991965,0.0028352269295
381.0,-0.0002482787676,0.00117879363705,0.0012986889384000002,0.0017992096835
382.0,0.00038408937555000006,-0.0005559746753,-0.0022620954345499997,0.0025616166885
383.0,-0.0002737432566,0.002622842357,0.0040393045575,0.004892435537
384.0,0.0006684428340500001,-0.001366594239,-0.0043798920805,0.0047155796195
385.0,0.0005511958386,0.00012327358934500002,-4.530556254999999e-05,0.00062031852625
386.0,0.0003810888118,-5.7401202250000007e-05,-0.0014899272510000001,0.0016365943965
387.0,0.0006448881845000001,-0.0005298905531500001,-0.0008104158505000002,0.004545243842
388.0,0.0001633971377,0.0002228142788,0.0017761480965000002,0.0033200707975
389.0,0.0031682068510000003,0.0034451331375,-0.012039398206,0.0132594532
390.0,-0.005961873380500001,0.040536283425,-0.00671413689,0.048098045015
391.0,-0.013824034625,-0.021830494157499998,0.01741346653,0.046197386505
392.0,0.0018387483045,-0.0021050644355,-0.006739601401,0.0075666690615
393.0,0.00045517771200000005,-0.0007777279436499999,0.000235546486,0.0028164198855
394.0,0.0007957652354,-0.003314627684,-0.00407219618715,0.006151275097
395.0,0.0005400593771,0.0010249456918,-0.0014833064315,0.0020716742655
396.0,0.0031544135704999997,-0.0012583701575500001,-0.00358412680265,0.0053426599905
397.0,0.001437682606,-0.0019406062667,-0.0027512258321500003,0.0037850875354999997
398.0,0.0065751432155,-0.0070833720529999995,-0.019812433395,0.031745407615
399.0,0.0130728320025,-0.007751814848350001,0.0006504054155000005,0.018613143045000002
400.0,0.0010514711984999999,0.009593746224499999,0.021637388505,0.02507356526
401.0,-0.00094218609255,0.0023565262450499997,0.0015119540330000001,0.0031510013905
402.0,0.00020681834104999998,0.00113867433274,0.0009670733864999999,0.002686863392
403.0,-0.00238092971365,-0.004669550683000001,-0.0066759402035,0.0154545888305
404.0,0.0020392811495,0.0031629017125,0.00513852167,0.006500146268
405.0,0.0050791045314999995,-0.0011246816025,0.0016891444110000002,0.007527557086
406.0,-0.0027745682729449998,0.001761293818,7.851550599999996e-05,0.004156335705
407.0,-0.00083926711045,0.0012573091270500002,-0.00034377059649999997,0.0023898573565
408.0,0.0006949683444999999,0.00041167590715,0.00048064222500000006,0.002280060521
409.0,0.00085624343935,-0.00065571059326,-0.0027522868403,0.0036537079245
410.0,-0.0007993303012000001,0.00015976419735,0.0029965889045,0.0035622595875
411.0,0.00104404404285,-0.0007172497675999999,0.0036223235519999997,0.003841898886
412.0,-0.00014005469499999996,-0.00017294633699999995,-0.00055491365948,0.0022505526464999996
413.0,0.00036074693215,0.0009411250683900001,0.0006610156876,0.001765217364
414.0,-0.0017453785096499998,0.0004965575352499999,-0.00083396200995,0.002141787206
415.0,-0.0030472505189999997,0.00067268691855,-0.00215281034005,0.004441510679
416.0,-0.0026705882788999997,-0.000185678561805,-0.00432047495,0.0058605241985
417.0,-0.005975666754999999,0.0084340509175,0.002188885022,0.014766698404500001
418.0,-0.02172969722,-0.022892575688,-0.0328905705635,0.050345249565
419.0,0.0004548212156,0.0060664264895,0.0098562087045,0.0125116082915
420.0,-0.008535908896,0.0036233846364999997,-0.0097465331035,0.014779488274999999
421.0,-0.0013920587157000002,0.0008764028465,0.0017708429826,0.0051925376454999995
422.0,0.0014970997485,-0.0018376872868000002,-0.0011713664932,0.0027764668175
423.0,0.0087746384675,-0.0044902382275,-0.020797060332,0.023297088682999997
424.0,-0.0050589452060000005,-0.008949706790000001,0.02071005667,0.0408371446
425.0,-0.00043994573889999996,0.0047327874865000005,0.002184547588,0.0069067971200000005
426.0,0.000323611214235,-0.0031215219349999997,-0.001902409509,0.0038287179135
427.0,0.00045517774064999996,-0.0022514852302,-0.0014896726019499999,0.0027806112266499997
428.0,0.000722554875,6.896632525e-05,0.00023024142125,0.0009297791139999999
429.0,0.0003862114163,-0.00077454487245,-0.0005899273275,0.0024035183265
430.0,0.00030663488825,0.000287536521505,0.0021018813605,0.0021755030680000002
431.0,0.008976232387,-0.003734791785,-0.0002291803693,0.009724913428
432.0,0.0013570450819999998,0.0005135339160000001,-0.0058695646865,0.010029373706
433.0,0.000497618542635,0.0014833064815,0.0027819954080000003,0.003405335007
434.0,-0.0035512351625000002,0.0032902241845000004,-6.472223449999984e-05,0.015441715215
435.0,0.0063756714075,-0.0070080395555,-0.005794232236,0.011119979100999999
436.0,0.0004284952012,-0.002362052041,-0.0026528947095,0.0036486679765
437.0,0.0006123573037999999,0.0011710015203,-0.0027778277235,0.0032561242285
438.0,-0.00012732244495000002,-0.00046897100645000003,-0.0020742948315,0.004345485242
439.0,-0.0006695038563,0.000334221418,0.0023788076765,0.0024964538965
440.0,0.00107375261915,-0.0012212344495,-0.0015299913782,0.002278055901
441.0,-7.2149385465e-05,0.0019034705474999998,0.0003299773385,0.00278546503
442.0,0.000168702239535,0.0007809109956,0.00114059690275,0.001541370425
443.0,-0.000204776932285,-0.00035650284585,-0.0020509523838,0.0021781390575
444.0,-0.00016870223952,0.0009390030316000001,0.0034483162105,0.003625330266
445.0,-0.00011140713930499999,0.0012509430195000002,-0.0006599546731500001,0.001546091297
446.0,0.0003692350857,6.366124099999997e-06,-0.0024541401225,0.002505882519
447.0,-0.00053793732985,0.0005591577373500001,0.0028743041924999997,0.0030076608055
448.0,-0.0013931197364999998,0.004467956796999999,-0.0029581248087499996,0.005978476888
449.0,0.001774026066,-0.0058387951235,-0.001644581573835,0.0084459076895
450.0,-0.00120638016185,-0.0037867816990499997,-0.012147622252000001,0.012864934123
451.0,-0.0010692411531,0.0026437105385,0.0073268422350000004,0.010642973137999999
452.0,0.0094292880685,0.006925279966,-0.0019098366645,0.017927774182
453.0,-0.01218051387,0.003766622299,0.008649438063999999,0.0155072998
454.0,0.00389818883815,-0.00017188530065,-0.0024074552280194997,0.00516527951255
455.0,0.00153529648,-0.00211567461285,-0.0082282130115,0.0111242097835
456.0,0.0008074365464999997,-0.0060520602055,-0.002046708310000001,0.020054617125
457.0,0.003234554568,0.0019331409214999999,0.008071271086,0.009498217916
458.0,-0.00036923509240000007,0.0011299866921,0.001171366485985,0.0019522163728000002
459.0,0.0007851550770999999,0.0006249409969,0.00071618875379,0.0018430152245000001
460.0,0.00082441282895,0.000101857955,-0.00016021407655,0.0010117485806500001
461.0,-0.0005195816764499999,0.0008976826511,0.00038451378095,0.001515244177
462.0,0.00046790998720000005,-0.0005888663076,-0.0006896632446000001,0.00171283400155
463.0,-0.0005336932456,0.000868975685,0.0022886209475000002,0.0025072733995
464.0,0.00011140714024999998,0.00044668957767000006,0.00034164856056,0.0009360986251499999
465.0,-2.7586528849999996e-05,0.000687541201885,-0.00090823343785,0.001866834336
466.0,0.0011002781319,-0.0005145948677,0.001054654247,0.0035095296855
467.0,-0.0002122040749,0.00033316039665,0.0019512164669999998,0.0019933254215
468.0,0.0083109726194845,-0.002741676641,-0.00029920776050000033,0.0114539462
469.0,-0.0037347917089000002,0.0017453785165,-0.0016541307769500002,0.004885216273
470.0,0.0010779966975,0.0014970997623,-0.00133051953175,0.003501374093
471.0,-0.0010981560857,0.00010504101894999999,-0.00035225876785,0.0014198760420499998
472.0,0.00036392998935000007,-0.00027268223625,0.0012827736345,0.002607333914
473.0,0.000483825290745,6.153918169999998e-05,0.000538998349,0.0017503498454999999
474.0,0.0002047769322755,0.00066632079445,-0.002310902375,0.0024608572505
475.0,0.0005482334716,-8.396914949999998e-05,0.0022950082905,0.0026156585995
476.0,0.0007490803844,-0.00048700835185,0.00032679427545000004,0.0014482596445
477.0,-0.00036074692731499997,0.00010504101705,-0.001941667284,0.002045469628
478.0,0.0002153871378805,0.000473215088,0.0021252238165000003,0.00237205948
479.0,0.00065889365255,0.00127852955135,0.0030567996944,0.0034622505299999997
480.0,-0.009498254378,0.0029284162233,0.0023437940049999997,0.0107309042695
481.0,0.0087703943915,-0.001649886677,-0.006656841825,0.0115111547065
482.0,0.00112255954895,-0.0009124775343500001,-0.004076440274,0.004346359571499999
483.0,0.00029708570485,-0.00071406671205,-0.00038090631980000004,0.001224895901
484.0,-1.8177400125000003e-05,0.00046426007505000005,0.0022272303090000002,0.0022812626785
485.0,0.00034891867125,0.0007036135392999999,0.00025992877125000004,0.0011428070623
486.0,-0.00037454019125,0.0003267942746,-0.00173582933165,0.0020066200705
487.0,3.5098554000000017e-06,-9.515229789999999e-06,0.00197122306905,0.001980250788
488.0,0.007930066308699999,-0.00033316039349999993,-0.0027809344045,0.009187990134500001
489.0,-0.007952347709,0.0008700367291,0.001172427523,0.0093380400185
490.0,0.0011894038417749999,-0.00097613874455,-2.4403470499999953e-05,0.0032637561725
491.0,0.00215174931017,0.0003130010114,-0.0016551917862,0.003115513758
492.0,0.00015172592285,0.00023448549990000002,-0.0005687069214,0.0014414700935
493.0,0.0006461613999,8.48816318e-05,0.00015066488049999996,0.002787436259
494.0,-0.0009252097620999999,-7.5332446585e-05,9.018672100000007e-05,0.0027155424620000004
495.0,-0.00085624344035,0.0003193671309,-0.0030186029625000003,0.0032759361935
496.0,0.000409061550145,0.00017257284281,0.0023787355305,0.002489663131
497.0,0.00018143448405000002,0.0011172544536,-0.0005496085539,0.001656919006
498.0,1.6976325950000018e-05,-0.000244034684275,-0.001968192795,0.002046273387
499.0,0.00088595201075,-0.0002546448908,0.0028594499085,0.0030113161144999998
500.0,0.00023448550275,-0.0003533197847,6.260020199999996e-05,0.001434554181
501.0,-1.0610213000000215e-06,0.0010854238411599998,0.0005814391615,0.0041096169775
502.0,0.00037666223295,0.0004753371324,0.001774026065,0.0020158031175
503.0,0.0004594218212,-0.0004912524286999999,-0.0021008203395,0.0022534536824
504.0,-4.456285760000002e-05,0.0017135479047,0.003075898057,0.0036282048235000003
505.0,-0.00022069224250500003,-0.0014016079075,-0.00026313305007999996,0.0015072894105
506.0,0.000997359151825,0.0015607609717,-0.0018101007467499998,0.003649554569
507.0,-0.000176129373825,-8.59426485e-05,0.002633452561,0.0027923911915
508.0,-2.7586534349999988e-05,-0.0006811750795,0.001384631579495,0.00170371108015
509.0,-7.427141878e-05,-0.0003862114170000001,-0.0011257426025,0.004148112406
510.0,0.00083502302915,0.00095173526745,0.0016880834081499999,0.0021929787840000003
511.0,0.00043183529219999997,-0.0009708336442500001,-0.00063342916355,0.0014305941556
512.0,0.0008031924188499999,0.00019522775074999997,-0.0010397999652,0.0019513162295
513.0,0.00039151651814999997,0.000425469172,0.002734249503,0.002800264368
514.0,0.0006302461014999999,6.578325485000002e-05,-0.0018939213624999999,0.002239086127
515.0,0.00017082428044999995,0.00035225875760000003,0.00017506836149999998,0.002338567941
516.0,0.0003766622355,-0.00042334713775,-0.0012944448543000002,0.002010122457
517.0,0.0012753464909999999,-0.0033358480595,-0.0098865878655,0.0105280487975
518.0,-0.00272151725045,0.00088913507205,0.0063204983645,0.007355901295
519.0,0.008956073055,0.03016693123,-0.011300928008500001,0.051292570645
520.0,-0.0337330208,-0.05384147885,0.0176182432435,0.07037686556
521.0,0.0203217231295,0.006446759816499999,-0.00032891634499999933,0.028448653095
522.0,0.002481726666,-0.0013729603555,-0.005280698398,0.0060883720115000005
523.0,0.0015700130694999998,0.00051391158825,-0.00038723424088,0.001773128671
524.0,-0.00013793264864999998,-0.00040106570156500003,0.000307695908595,0.00097444599
525.0,0.00010291897635000003,0.00048276427039999997,-0.0011543901675499998,0.001514466574
526.0,0.0002641940742,-0.0016063848505,-0.000570828961615,0.0018634841285
527.0,0.00012626142458,0.0005782561041,0.0003490757032,0.0007229613230000001
528.0,-0.00012095632270000001,-0.00014111570980199998,-0.00211355258605,0.0022061890622000003
529.0,0.000321489173455,0.0007936432411,0.0037347917069999997,0.003852592395
530.0,4.2440814975e-05,-0.0001856785636735,1.3793265000000034e-05,0.001636745315
531.0,0.00028329244,-0.00014642080520000002,-0.00196288769255,0.0021913776059999997
532.0,0.0007257379361499999,0.000600537531,0.00226103441515,0.0026303606249999997
533.0,-0.00024085162408000001,0.00065040549225,0.0009252097618999999,0.0020849884915
534.0,0.0001538479543,5.517305850000003e-05,-0.0024032111445000002,0.0029514148335
535.0,0.0010584569492,0.0009832263606,0.002684899323,0.0030705593049999997
536.0,0.0009464301757,0.0004604828426499999,-0.0001549089747,0.0013868137774
537.0,0.00022918040185,-0.00048382529075000004,-0.0025931337905,0.0026787900515
538.0,0.00023342448145000002,0.0009718946621,0.0039724602765000006,0.004102130051
539.0,-0.00026234365655,0.00021149955455,-0.002130253045,0.0022196012519999997
540.0,0.0007193718139,0.000212204074,-0.000664198753,0.005102162017000001
541.0,0.00098993200955,0.0001442987709,0.00121062424335,0.00228765204165
542.0,1.8758839999999963e-06,5.781712224999999e-05,-0.002308394119,0.0023343574032
543.0,0.00065208614577,0.00070089733012,0.0014759854385,0.004593032076
544.0,0.0006029354378745,0.00126771138765,0.0019867309428500003,0.0029241307375
545.0,0.00054005937065,-5.4112041850000014e-05,-0.0026663441975,0.0027490490115
546.0,0.00043395733315,0.000515655902,0.0020774778895,0.002247757088
547.0,0.00011176788714999998,0.0002336197092,0.0011300758244999999,0.0014654909669999999
548.0,0.0014122181255,-0.0002567669288,-0.006883900166,0.007572348822
549.0,0.0004925086815250001,6.0945010299999996e-05,0.00085067096295,0.0019160960385
550.0,-5.623407984999999e-05,0.000215387136,-0.0002249363194,0.0005576589551
551.0,0.000305128243,-0.001470608187,-0.001555434657,0.0036066025905
552.0,0.0002450108219999999,-0.0003014698421,0.0019121496959,0.0032609685610000003
553.0,0.00027832262054999996,-0.0007156879521,-0.0027330866246,0.0030835564845
554.0,0.00092792597785,-0.00022038241850000004,-0.0005657445515000002,0.003696224934
555.0,0.00031724509196500003,0.001327336487,0.0010790577208999999,0.0018627225865
556.0,-0.00018249550440000003,-0.000190983670195,-0.0031162168295,0.0032540338005
557.0,0.0010939120059499999,0.00085942650035,0.0047056253495,0.004947494073
558.0,-0.00024191264540000002,0.00011883428250000002,-0.0011119493545,0.0021119111019999998
559.0,-7.95765281e-05,-0.00044138447580000005,-0.0023077193118,0.0024434587485499997
560.0,0.0005315712059000001,0.0010207015983999999,0.0027713852144999997,0.00321659077
561.0,0.006102772748750001,0.002122647667,-0.004520209923800001,0.008882376187
562.0,-0.0053146510455,-0.0013994858635,0.0011172544451,0.0064402503985
563.0,-0.031939692605,0.0051744690449999995,-0.0023526005799999992,0.04000733603499999
564.0,0.037763472214999996,-0.01390909011125,-0.003259917116,0.043398043845
565.0,0.0085157494965,-0.00216766460825,-0.0004965575408,0.00914421138
566.0,0.00073528712,0.002977223156,-0.0032095866295,0.0056129824425
567.0,-6.790530400000003e-05,-0.00010504101615000001,0.0012594311845,0.0031074335100000003
568.0,0.000715127732515,0.00035119774375,0.0013761434274000002,0.0022743280095
569.0,0.00016764122010000002,-0.0021262848325,-0.0025804015425,0.003411481559
570.0,0.00034280719484999994,0.001990321435,0.0041289777445,0.004689412029
571.0,-0.00029491697923000003,6.210364455e-05,-0.0019043787849999999,0.0020955012820000002
572.0,-0.0002564910653,1.3831462530499998e-05,-0.00027314059900000005,0.002743413969
573.0,0.00083183997335,0.00036392998845,0.0029846503135,0.0031226873200000003
574.0,-0.00011352918008499999,0.00010822407819,-0.00209445422,0.002105668935
575.0,0.0002196312174,-0.00023236346201,0.0013421907755,0.0030832078055
576.0,0.0001050410170755,0.0008116805846,-0.00023130244329999997,0.001429576444
577.0,-0.0004870083519,-0.00043289631275000005,-0.002338488905,0.002446284997
578.0,0.00053390120835,0.000555995896865,0.0030723584985,0.003233538996
579.0,0.0002037159119,-0.00021857019715,-0.000790460179,0.002202706581
580.0,0.0001462255839,-0.00017263225724999999,0.0008782150454999999,0.004980953537
581.0,0.00039682161985,0.000411675905285,0.0016551917849999998,0.0030298381310000003
582.0,-0.00010079693745000001,0.00035119774305,-0.0020212438125000003,0.002201050788
583.0,0.0074197154695,0.0062441048765,-0.0027597139929999995,0.01186205882
584.0,-0.0043820141235,-0.0061146603907,-0.0044753839729999995,0.0122798772935
585.0,-0.00043059177849999995,-0.00109701018202,0.0019622298545,0.0059946441454999996
586.0,0.00199830029555,0.00085135850625,0.003715697591,0.005172512352
587.0,0.0001793124740000001,0.001851480545,-0.00070982262965,0.005301892883
588.0,0.0107842110905,0.0360460452465,-0.013420846692,0.051366103455
589.0,-0.129495414705,0.050260535365,-0.0028350462249999986,0.1577319423
590.0,-0.01743256474024,0.086837090685,0.084019020335,0.15384593673
591.0,-0.36186948606499997,0.18098673265,0.28419112465999996,0.53750609045
592.0,-0.122056600745,-0.7845184666,0.44045820570000005,0.94899948425
593.0,-0.035482643790000004,-0.04346470044999998,-0.01851056149,0.34242800004999996
594.0,0.10569248344000001,0.26100888980500003,0.09014853516499999,0.42758456775000003
595.0,0.31965638735,-0.31859885069999994,-0.53566346085,1.214923352
596.0,0.3200770549,-0.39710695779999994,-0.20208224215999998,0.84832650405
597.0,0.122078882115,0.008661109469999997,0.07517859867500001,0.16241178565
598.0,0.14161014554,-0.026507472250000004,-0.046145897915,0.31136345715
599.0,-1.1821920854499999,0.4606345671,0.8941494542999999,1.5748760635
600.0,0.12793465380000002,0.63727217965,-0.40926420525499996,0.9798561908000001
601.0,0.53508318485,0.06736630510000001,-0.22313258465000002,0.61045233545
602.0,0.01438789905,-0.09727969980000001,5.4498192000000147e-05,0.098861912405
603.0,0.0255651119928,-0.024139524859999997,-0.006480092813500001,0.062313958015000004
604.0,0.0029992753700000003,0.014594466829000001,-0.0091724745025,0.036182064915000006
605.0,-9.015698499999995e-05,-0.0018242547705000002,0.0014184059996500001,0.0029462034165
606.0,0.001441591405,-0.002073560609,-0.0006976336234999999,0.0039754427
607.0,0.0010801187339499999,0.002252546253,0.00137932648305,0.0032795379905
608.0,-0.0005974690855000001,-0.005875697401999999,0.002526726633,0.014020895796
609.0,0.00032280059950000003,0.002136024991,-0.0033276230219,0.007159907301
610.0,-0.0010942430491,-0.000640440376,0.00090943027415,0.0049865539304999994
611.0,0.00196254815785,0.0055959529913,0.0008118715664999997,0.0089289882135
612.0,-0.002209044418,-0.0010387389464,-0.0022833158445,0.0034221607255
613.0,0.00058530523135,9.897988356e-05,3.5181201499999914e-06,0.0006616456503
614.0,0.0006525275303000001,0.00054854753265,-8.063754649999992e-05,0.002316808838
615.0,0.0005612797781,0.0003915165182,0.001563944032,0.0017397891205
616.0,0.0014122181203999999,-0.0016223001533,-0.00132415342285,0.0028704657655
617.0,-0.0007766669141,0.00179206341,0.0022504242088500002,0.0037327624875
618.0,-0.000212204073965,0.00040212672005000003,-0.00012095632285000002,0.0012269116625
619.0,0.0005697679411,-1.5915305600000003e-05,-0.0013581060794999999,0.001494104828
620.0,0.0002132650934,-0.00022281427774999997,0.0019904742205,0.0020771821865
621.0,7.002734474999999e-05,0.00034058753835,0.0005198999835,0.0007379443248499999
622.0,0.00036286896898,0.00044032345168,-0.0009655285406,0.0012396495665
623.0,0.000195227747995,0.00011989530325,0.0018228330022,0.00202243258045
624.0,0.0006928463045,0.0004986795769,-0.00080107038265,0.0012830232975
625.0,0.00033103835685,0.000524144065905,0.0003076959084999998,0.0026041077994999997
626.0,6.260019930000001e-05,-0.00019734978874999998,0.0015299913798000001,0.00167467065835
627.0,0.00100054220675,0.00022069223975,-0.0022875599265,0.002570896934
628.0,-0.0016042628006499998,0.001935301163985,0.0006206969215,0.0047476038879999995
629.0,0.0049825516705,-0.0046164996345,0.002178274826,0.007210249221
630.0,-0.0022164715625,0.0026313305214999997,-0.0010472271095000002,0.004227437237
631.0,-0.000360746927335,0.00037772325349999996,0.0008636705847,0.0012309462731
632.0,0.00087852487005,-0.0003267942772,-0.0015724321948,0.0019829155611499998
633.0,-0.00022493631934999997,0.0,0.0027915446025,0.002869048063
634.0,5.51730595e-05,0.00021220407395,0.00014111571000000002,0.001923881717
635.0,0.0004456285582295,0.00017506836084999998,0.0009283928284999998,0.0037531091375000002
636.0,0.00026525509364,0.00063236814327,0.0006366122234999999,0.002149890933
637.0,0.0002504008084,0.0004159199886,-0.00155969995,0.001633509699
638.0,0.00015809203579999999,0.0007543854835500001,-0.0012169903695,0.001556243308
639.0,-0.0002992077456,0.000153847952425,0.002255729316,0.0022833867395
640.0,0.00050504569825,-0.00032785529664999997,-0.0006567716119999999,0.0013022563549
641.0,-0.00056870691515,0.00073953120405,0.0008466942576499999,0.0020794914105
642.0,-0.001379326501,-0.0040255112945,-0.00176765995,0.016616450255
643.0,0.00075014140475,0.00182071095051,0.00059523242811,0.0022569997446
644.0,3.7135713105e-05,-0.0011575732274,0.00052626610555,0.001371286924
645.0,0.00010716305780500001,0.0003437706004,-0.00047533712774999997,0.0006372329416
646.0,0.00019947182945,0.00031618407159999997,0.00015915305649999998,0.0018821476419999999
647.0,0.00030132978635,0.00049019141115,0.00065358855051,0.00105297290435
648.0,0.0004403234554,0.0004774591657,-0.000863670584745,0.0012694161891
649.0,1.3793264849999999e-05,0.00185148055255,0.00112892567845,0.0023208091158
650.0,0.028160541830000003,0.030464016923,-0.023602398174999997,0.05768539211
651.0,0.0048191545944999995,-0.040495964655,0.005335871484,0.044934972255
652.0,0.009269073970499999,-0.0043597326935,-0.0026058660385,0.0107360182795
653.0,-0.000225997339775,0.00027162121774,0.00065571058215,0.0008494072296
654.0,0.00084457221805,0.0005209610047999999,0.001998962384,0.002240128218
655.0,-0.0005517305947,0.00028541447610000003,-0.00022281427865,0.0007754893688000001
656.0,0.00026525509365,0.00106950853585,-0.00013156652644999997,0.00122724515325
657.0,0.0005368763094500001,-0.00065358854795,0.0005114118205,0.00106941927435
658.0,-0.00039682162005,-0.00015703101545000003,-0.00013156652645,0.0007753713549
659.0,0.0008233518104,-0.0003756012107,-0.0006673818130000001,0.00264891537
660.0,0.00041485896645,0.0006981514064,0.00150664893195,0.001837284055
661.0,-8.594265035e-05,0.00020053284795,-0.0006949683451999999,0.00118852444465
662.0,0.00060372059305,5.7295102999999994e-05,0.001661557891,0.00452373181
663.0,0.00020795999339,0.00030451284839999994,0.0006610156925000001,0.0022190707265
664.0,7.321040585e-05,-0.0001623361174,-0.0032721868305,0.0034633435529999998
665.0,0.013607178877,0.028361800297,0.008718540209500001,0.035201838675
666.0,-0.04780029642,-0.007085574685,0.0123765310485,0.061008575965
667.0,0.0139439298225,-0.0094282269965,-0.0102823484145,0.0252629398255
668.0,-0.00117348853515,0.00164670361005,0.0031416813244999997,0.003749695929
669.0,-0.00032891631609999997,-0.00013050550604999997,-0.0020520133913,0.0022450760755
670.0,0.00113316976,-8.275958919999997e-05,-0.002733188482,0.0030268638384999998
671.0,-0.00052838814835,-0.00148012341845,-0.0051332165595,0.005456699047
672.0,0.004310925765,-0.00039469956250000023,0.0094727899045,0.01852283285
673.0,-0.0007851550769,-0.00030981794934999997,0.0010811797605000003,0.003729113898
674.0,0.00022705835549999991,0.0010037252879999997,0.004157077814,0.0065988947075000005
675.0,-0.00025994999080000003,0.0019130197212,-0.0017994905555000001,0.0027403168485
676.0,0.0017591717805,-0.00200320646,-0.0007140667119999999,0.002764716352
677.0,0.00027268223626499997,-0.00039788263949999995,-0.0005347542687,0.0009313112215
678.0,-8.806469108499999e-05,0.00058674426985,0.0009273318082000001,0.0013888008335
679.0,0.00062600202095,-0.0004233471322,0.00035013672355,0.0008843958698
680.0,0.00014960387002,0.00044032345634999995,-0.000206898973045,0.0005774344597
681.0,0.00014642081167999998,8.594265099999999e-05,0.00042865222400000026,0.0047413062635
682.0,9.6552854055e-05,6.57832623e-05,0.00179842953205,0.00212799579
683.0,5.8356121525e-05,0.00015066489135,-0.0011172544542499998,0.0012051997448
684.0,0.00044138447575,0.00055597467625,-7.957652849999988e-05,0.002273005023
685.0,0.0002504008084,0.0001538479543,0.002432919719,0.0024586001555
686.0,-0.0003236112142,0.00032467223365,-0.0007246769158,0.00091879792535
687.0,0.0002705601955,0.000405309779345,0.0004191030469999999,0.003226234265
688.0,0.00013474958755,0.00033528243644999995,-0.00029178060295,0.0009525126463999999
689.0,0.0006026595727,0.0002535838686,-0.001691266477,0.0018231222914999999
690.0,0.00011777326154999999,-0.0003586248875,0.0013793264867,0.0022675042314999998
691.0,-2.86475501e-05,0.0007862160977,0.0007957652807,0.0016610802065
692.0,0.00064510038765,0.0007490803844,-0.001726280149,0.0020252153185
693.0,0.0006695038563,-3.925775384999998e-05,0.0020668676865,0.0022314295915
694.0,0.00036074692734999996,0.0008689756866999999,0.00021963121749999997,0.00101494301435
695.0,1.0610203750000008e-05,0.00040743182195,-0.00145996403505,0.00156154396725
696.0,6.6844283605e-05,-0.00023554652500000001,0.002810642972,0.002823919009
697.0,6.790530397999999e-05,9.8674893885e-05,-0.00111194935225,0.0011228413585
698.0,0.00025040080836,-3.607469275000003e-05,-0.0015925915815,0.0017337128309999998
699.0,7.427142621e-06,-0.00026207203065,0.0032997733645,0.003336097562
700.0,0.00011246815972000001,0.00010504101706,-0.0004976185555999999,0.00056907817165
701.0,0.0004933744741,0.0007490803862,-0.0011289256785,0.0020195224195
702.0,0.0005825001856,0.0003946995793,0.00116712241189,0.0015762559299500002
703.0,6.153918169999998e-05,0.0002546448908,0.00073953120095,0.0008771185219
704.0,0.0001931057063,0.0004435065184,-0.0005655238585000001,0.0018550162824999999
705.0,6.153918171999999e-05,-3.925775475000003e-05,0.0028297413362000003,0.0037052712027
706.0,0.00024721774729999997,0.00013793264965,0.0018058566763,0.0022478913943999998
707.0,0.0004074318238,0.00063661222375,-0.002289681968,0.0024225644265
708.0,6.0478161345e-05,0.0002366075435,0.0022408750299999997,0.0022621105555
709.0,0.00019841081005,-0.00033634346055,0.00030451284745,0.00053789693805
710.0,0.00022599733975,-0.0002313024407,-0.0025040080825,0.002557052996
711.0,0.00024827876765,0.00011034611894999999,0.0047607984145,0.0047946870595
712.0,0.00153954055987,-0.0004509336620000001,-0.0036499100714999996,0.004375977825
713.0,-0.0011119493479999996,0.0018122228106999998,-0.004098721689,0.010329730419
714.0,-0.0026992358335000003,0.00230665828758,0.0066791232385,0.007954459074000001
715.0,0.0024021501155000002,-0.002091271146,-0.0042578747480000005,0.0097141862875
716.0,0.005753913483,-0.0040976606835,-0.0009941760890000001,0.0074811142054999995
717.0,-0.0039077380245,0.0013199093227849999,0.00041910304254999997,0.004453485626
718.0,-0.0050409077975,0.0011437799665,0.00198516911423,0.006583193954
719.0,0.0007161887527,-0.0012371497566,-0.0005676459005,0.002705848565
720.0,0.0007609468362999999,-0.00035500468154999994,-0.0034870901455,0.00374736859
721.0,0.00021326509530000001,0.0009867489474,0.001887555246,0.002495588491
722.0,0.00030981794934999997,9.230877259999999e-05,0.0006249410005999999,0.0008679761661499999
723.0,-0.0080085818073,0.0099491880629,-0.0024849097135,0.013610542794
724.0,-0.003170328828,0.011472813182,0.01650523294,0.02317377574
725.0,-0.048083321325,0.062521686515,0.159547755785,0.23240337345
726.0,0.12186031124999996,-0.49507210684999997,0.42281237465,1.5106137099999999
727.0,-0.14497023575499998,-0.5268816023,-0.39034663815,0.71372895865
728.0,0.130394098755,0.027950459935,-0.05370036359000001,0.20593947740000002
729.0,0.24834455164000002,0.10855936031999999,-0.14407807866,0.3541883481
730.0,-0.024489411265,-0.019339218273,0.021338180834999998,0.04118762849
731.0,0.005117301195,-0.00424089840695,-0.002117796684,0.01825004455
732.0,0.11711542959500001,-0.064778476835,0.01369777326,0.23155642164999998
733.0,-0.084855105375,0.15595195825,-0.0779754488,0.30782952495
734.0,0.09127215642,-0.0642171973,0.3341980766,0.43071006484999996
735.0,0.17751082996,0.19004891049,0.42813020961,0.56540352085
736.0,-0.071344071735,0.22664350034999997,0.07218227719999999,0.31467871605
737.0,0.00911193267,-0.14772585826,-0.45520659129999996,0.48137489619999996
738.0,-0.20927141525499998,0.05151572275499999,0.5252528323,0.6109436294
739.0,0.018880857554999998,-0.01573599317,-0.010478637164999995,0.08103612067
740.0,0.165610425858,0.12374468418,-0.265995685715,0.34016683940500003
741.0,-0.086481648915,-0.04436020040000002,-0.1567127085,0.7362236566
742.0,-0.839086744,0.55109610565,0.76700526095,1.2882273755
743.0,0.30470913521,0.50001009665,-0.5674145978,0.9601027243
744.0,0.5285133466,-0.13923664417,-0.28243195215,0.65129425745
745.0,0.028633756755000003,0.0403697029825,0.000177190495,0.078836228495
746.0,0.000277210674,0.005250582379725,-0.003842854508,0.0074714123819999995
747.0,0.007967201991,-0.0089051440305,-0.001122559557,0.013004872722999999
748.0,-0.0018917993182,0.0017241581003,-0.0021390170719999997,0.003802020423
749.0,0.002913561939,-0.00206686769305,0.00030875693244999995,0.003918670072
750.0,0.0034154245855,-0.0043257800575,0.0017581107389999999,0.0063875560235000005
751.0,0.002319390531,-0.00119576995925,0.0012053191445,0.0028770511525
752.0,0.0009241487461,-0.00037029610789999996,0.001059959354,0.0022162251595
753.0,-8.829665505e-05,-0.000130226292,0.00037402471668,0.0006362801761
754.0,0.0004763981481,0.00042334712945,-0.0014493538314,0.0015876562355
755.0,0.0003649910088,-9.655284849999999e-05,0.001498160767,0.001814928837
756.0,-0.00010291897635,0.00013156652200000004,3.2891631599999996e-05,0.001286618218
757.0,0.0002535838695,0.0002928416243,-0.000242973665,0.002159395348
758.0,8.700367072e-05,-0.00025782795020000003,0.001245637919755,0.0016271745712
759.0,7.2149385445e-05,0.0004785201889,-0.0011840987375,0.0013080165044999999
760.0,0.00056976794295,0.00057401202355,-0.00022918040150000007,0.0024687618625
761.0,0.0001294444857,-0.00012095632271,0.0010376779262,0.00109301367735
762.0,0.00022069223787,0.0005697679412300001,-8.912571145e-05,0.0008350981992999999
763.0,0.000171885300675,-7.427142620000001e-05,0.0015374185225,0.0016221686215
764.0,0.000484886311125,0.0006970903853000001,0.00014748183204,0.0010251199673
765.0,-0.0001432377524,0.00100796935565,-0.001311421183,0.001670103819
766.0,0.00030981794936,-3.713571310000002e-05,0.001652008723,0.001729417248
767.0,0.0001527869339,0.00068860222305,-0.00031618407175,0.0012150097802
768.0,0.00064616140805,0.000596293449355,0.0011915258786500001,0.0021603806790000003
769.0,0.0005283881465,0.00017931244235,0.00057401202239,0.00092122909685
770.0,0.000187800605355,0.000206898973,-0.001173488534,0.0012232784990000001
771.0,0.00026843815475,-0.00017400734049000002,0.0016849003545,0.0017755609944
772.0,0.00016339713767000001,0.00074695834345,-0.00077242283245,0.00119433799305
773.0,0.0003076959086,1.4854286170000003e-05,0.0008021313975000001,0.0023117998625
774.0,0.00012201734308499999,0.0008286569124999999,0.001201075064,0.001503256364
775.0,0.0013295136959999999,-2.15938867e-05,-0.0027151893230000002,0.0030613426779999998
776.0,-0.00011135196624999997,-9.893803624999998e-05,0.0009403314334,0.0012629519669500001
777.0,0.00019841081095,0.0005782561059499999,-0.0010610203745150002,0.00138004575265
778.0,0.00095597935645,-0.000362868965305,0.0022419360455,0.0025286986609999998
779.0,-0.0021400780937,-0.004983612719,-0.0076637501555,0.010908075829
780.0,0.0071905350555,0.0035777606945,0.0020053285075,0.0084195989225
781.0,-0.00107163058,-0.005329505374999999,-0.0074048611765,0.02333709462
782.0,-0.0025188623515,-0.0003734792005000001,0.00013474958945,0.0030942961015
783.0,-0.00030663488819999995,0.00052096100015,-0.000798948341,0.0036437350459999998
784.0,0.0018536025935,0.006336413684,-0.0006037205895000001,0.0081105052265
785.0,-0.01699224133,0.01242242649,-0.01271739019,0.02463391544
786.0,0.016813989879999998,-0.008048900534,0.0022886208895000005,0.023744027585
787.0,0.00022339147555000002,-0.00038585491525,0.0018480428416999999,0.00217407545
788.0,-0.00045093365915000003,0.0019130197305,0.0018451144284499998,0.003176961355
789.0,0.000213265095255,0.00053475426761,-5.092897794999999e-05,0.00076333585905
790.0,-5.1989998354999995e-05,0.00041910304885,-0.0021612985025,0.0022038972205
791.0,0.0006440393673,-0.00018143448404000001,0.0023862348225,0.0024906181180000004
792.0,0.00054642549285,3.1830611249999996e-05,-0.0003055738679,0.00115881499815
793.0,0.000498679576,0.0003384654985,0.0009814438455,0.0035450577545
794.0,0.00011034611893000001,0.0005252050863000001,0.000988870989,0.0022894777909999997
795.0,0.000245095706495,0.00053793732895,-0.002572974407,0.0026691957230000002
796.0,0.0005973544708500001,0.000161275096,0.00192362993875,0.00231622857
797.0,0.000184617545185,0.0007236158934000001,-0.00098780996855,0.00127218452885
798.0,0.000251461828735,0.000626002021645,0.0008986842571,0.0022497938655
799.0,0.000182495504395,5.305101900000012e-06,0.00054324243175,0.0006821045777
800.0,0.00018886162665,0.0006185748783499999,-0.001504526891,0.001643833836
801.0,0.0005496085530499999,-0.00010610203745,0.002868999092,0.0029510192185000002
802.0,0.0026334525637000004,-8.063754844999998e-05,-0.00208490503035,0.00349827030245
803.0,0.0009735914455000002,-0.0040074739795,0.0024543043170800003,0.0102812406655
804.0,-0.00250188604005,-0.00093794200939,0.004116759063,0.005424521918
805.0,-0.0024838486995,-0.0004541167205,0.00022069223880000002,0.0036468256845000003
806.0,-0.0013347636255999999,0.0016562527972999999,0.00068011405915,0.0022717582545
807.0,0.0015119540330000001,-0.00074165323895,-0.0008891350737,0.0022280017925
808.0,0.00036286896805,-0.00031724509015,0.00205413543945,0.0022168918354
809.0,0.00053475426875,0.0004201640683,-0.0006641987546,0.00107331630535
810.0,0.00016976325989999998,4.350183165000001e-05,-0.001354923018,0.0014251090575
811.0,0.00028464630200000004,-0.0002147972115,0.0018526391877500001,0.0025339865765
812.0,0.0003310383568235,0.0011183154725999999,-0.0008817079310499999,0.0018226487245
813.0,0.00040849284416,-6.153918264999999e-05,0.001720975047235,0.00216981777405
814.0,0.00013474958755,-0.00028117040482,0.00050504569815,0.00121367119355
815.0,-0.00025252284915,-0.0004838252896,8.594264550000012e-05,0.0034705362925
816.0,-5.1989998348e-05,-7.957652804999999e-05,0.0014493538280500001,0.00175519950295
817.0,0.00023236346477,0.00066313772665,-0.0022674005395,0.002419143179
818.0,0.00010079693555000001,-0.00022175325640000002,0.00231090237,0.002431937106
819.0,0.00030132978450000004,-0.0001633971386,-0.00139205872595,0.00154480418775
820.0,-6.472222430000001e-05,0.0003013297845,0.0003596859405,0.0011235186231999999
821.0,2.3498233880000007e-05,-0.00039100284590199997,7.7286082495e-05,0.0004712719599
822.0,0.00020371591840000002,0.0005071677250799999,-0.0006472223171500001,0.0009116075435
823.0,0.0006206969098,0.00066632079795,0.00118728180295,0.0015688981875
824.0,0.0009708336429,-0.003469536606,-0.00451145854235,0.0078144348495
825.0,-0.007589478724000001,0.0185466360735,0.0115025218225,0.023679890795000002
826.0,0.00405521971545,0.10788455183000001,0.03474735622,0.11551941167499999
827.0,-0.23442502559999998,-0.30263059785,0.39064435956000004,0.92437795545
828.0,0.05687169654999999,-0.60755275695,-0.4610454505,0.8879619791
829.0,0.14916991535,-0.11859342997,-0.1899810031,0.269662668
830.0,-0.00697939208,0.02333396008,0.005756035561,0.034969642865
831.0,-0.006858435667499999,0.06913396541,-0.052212812715,0.093037942545
832.0,-0.08747051983,-0.01949518818,0.07847306702000001,0.12715624215
833.0,-0.006621828152499999,-0.0012307836950000003,0.0130579776715,0.02542837589
834.0,0.0071756807900000006,-0.0009623455484999998,0.0057220828415,0.01166671012
835.0,0.022851195855,0.0174580293075,-0.035763813704999994,0.04638546583
836.0,-0.0113433687615,-0.015755091547,0.02635786818,0.032810100085
837.0,0.0290634699,0.010124256554,-0.022995494530500003,0.039765283023
838.0,0.0019363621510000003,-0.0054175700043000005,0.0006132698600000005,0.01533340277
839.0,0.00402551127,-0.0049295006875,0.0061146604125,0.021387137825
840.0,0.00055915772139,0.0017931244402,-0.0031193999330000003,0.003770364685
841.0,0.02274297174,0.008417074824999999,-0.019907925436,0.036109674104999996
842.0,-0.033727715629,0.005108812975,0.023858104185999998,0.057487534615
843.0,0.018677141415,0.012820309455000001,-0.015240496710000002,0.16404316889999998
844.0,-0.0008594264679999998,0.0024583841735,0.0060361449250000004,0.01035867108
845.0,0.039663063485000004,-0.040083227695,-0.017140784120000002,0.09733486662
846.0,-0.0247557274,-0.050295549035,0.031033785060999998,0.09383218615500001
847.0,-0.004124186206,0.00332948189535,0.0039586670647000005,0.007738114637
848.0,0.009644675194,-0.003770866283,-2.0159397499999992e-05,0.012338150774999999
849.0,0.162416754863,0.3782282977475,-0.018425679788999998,0.413357481636
850.0,0.27360850680000004,-0.17837874564999998,0.03416273385,0.58236283375
851.0,-0.14948928395,0.093354938495,0.28109825104999997,0.74628130075
852.0,-0.4913829395815,0.32721125619999997,0.4355318872,0.9086070401499999
853.0,-0.212061899,0.78491316455,0.14243455724999998,1.1339115039499998
854.0,0.58219142925,-0.41616614425,-0.25374196105,0.7599181215499999
855.0,0.0078536728162,-0.007035626121849999,-0.0075756854705000005,0.0137214094765
856.0,-0.005665848800500001,0.0044096006625,-0.007147033221,0.0101337842355
857.0,0.0011310477182999998,-0.00017294632749999999,-0.00259101174585,0.004020703472
858.0,0.00118756101395,-0.0020224809555,0.0010630436149,0.002764043956
859.0,0.0009071724163,-0.002597377869,-0.001306116079,0.0039265623335
860.0,0.0014016079109,-0.00104934914965,0.0007936432402499999,0.00194619309435
861.0,-0.0018599687129000001,0.00108542382525,0.0004477505981,0.0027255665235
862.0,0.001565005051615,-0.0014557199575,-0.0020000234009999998,0.0032147371905
863.0,0.0004763981508,0.00202124381,0.0044477974005,0.0051268104205
864.0,-0.00036180794679999996,0.002251485231,0.0028318633770000002,0.0036467738989999997
865.0,0.0009602234408700001,-0.0007055785425,-0.0013687162821499998,0.003071760064
866.0,-0.0008010703827,0.002010633609,0.0024297366505000003,0.0034145780635
867.0,0.00073194278314,6.352116595000003e-05,6.843157009999999e-05,0.00119825470615
868.0,0.00025994999175,5.4112039100000025e-05,-0.00058780528745,0.0008377261535
869.0,0.0008604875247,-0.0006058426329000001,0.00012732244585000004,0.00122313059955
870.0,0.00016339713675000002,0.00034483162349999987,0.00103449486395,0.002706384888
871.0,-9.124775225e-05,0.00137508240346,0.0005952324291499999,0.0017718011726
872.0,0.0007618126289,0.0002525228482,0.00055597467625,0.00099198753035
873.0,0.001646703621,0.002136895032,0.002423370533,0.003626386347
874.0,0.00020371591075000003,-0.0006238799803,-4.6684904000000036e-05,0.002257167282
875.0,0.00012413938379999997,0.0007639346659,-0.0006504054895,0.0037464964020000003
876.0,9.549182450000013e-06,0.0014122181155,0.003194732344,0.0035159668645
877.0,0.0003151230512,-0.0003809063156,-0.00119152587755,0.001704750365
878.0,-0.00044103646010000005,-0.0009441468544999999,-0.001407727879,0.002896096939
879.0,-0.0034514992715000002,-0.0017740260715,-0.0049613312725,0.010383757517500002
880.0,0.004495543351,0.0023204515666,0.006106172247,0.00805063148
881.0,-0.00121702432215,0.0009424237444999998,-0.0017682201615,0.0057442946795
882.0,0.0046928931185,0.00111937649135,0.003632933774,0.0061358976875
883.0,0.0036228158559999998,-0.0017785927155,0.0008068550695000004,0.006356781459
884.0,-0.001781648430045,0.0011781400454999999,0.00141506165015,0.0030095050345
885.0,-0.00050712530285,0.002813091826,0.004499481825,0.005342196687
886.0,0.0005878052856,0.002559181144,0.001904531569,0.0032570170505
887.0,-0.00016976325900000002,-0.002352282169,-0.00103555588265,0.0036842111215
888.0,0.0020933931970000003,-0.0008169856875000001,0.0023406109385,0.004347653419500001
889.0,-0.00093263690915,0.004166627004,0.0013655332165000002,0.0057323321515
890.0,0.045352331315,-0.027747830345,-0.070336886715,0.09006455776
891.0,-0.031290551715,0.022921223110500002,0.030191334650999997,0.05468173439
892.0,0.0016636799185,-0.0048615953595,-0.009191619498,0.012821401095
893.0,-0.00231302440795,-0.002593133787,-0.0022419360445,0.0049035263845
894.0,-0.004963461763000001,0.0040044139840000005,0.0044518420045,0.009477827934
895.0,-0.0035843305305,0.0017597489715,0.0016940463465,0.0044115994745
896.0,8.700367070000001e-05,-0.00024403468615,-0.0019650097278,0.0021121036518
897.0,0.0007789459859999999,0.00024019803555000002,0.0024361706844999997,0.002652639387
898.0,-0.00029920774561,0.00053475426852,-0.0008573044626,0.00117226418295
899.0,0.0009453691538500001,1.5915305e-05,-0.0006631377339000001,0.0021796030315
900.0,0.000169304899115,0.00072482970175,0.0018209953125,0.001989692223
901.0,9.443081331e-05,-4.6684894634999995e-05,-0.0011469630247,0.0011756067958
902.0,0.00058193572275,0.00017837874445,0.0009639921769,0.001933221755
903.0,-0.00017400734140000002,0.0007628736446,0.00060372059305,0.00129812646035
904.0,-0.00020583795265,0.00045836080195,-0.0018429923894999999,0.0020057473025
905.0,0.00017348946240000002,-0.000772629145985,0.001983447065,0.002353863896
906.0,0.00014642081169000001,-0.00028541447983,-9.97359152e-05,0.0005794397833
907.0,-0.0002419126454,0.000670564876495,-0.0014642081150999999,0.001871717145
908.0,0.00010716305781500001,0.0003183061114,0.00256342522315,0.00259370205675
909.0,0.00037666223295,0.0006429783443,-0.00104086098745,0.0014033344714000002
910.0,0.000444567536,0.00108860690815,-0.0008010703879999999,0.0029917469804999998
911.0,0.00010610203744999999,0.0008615485434,-0.00011883428169999998,0.0014360551494
912.0,0.000101212856504,0.00105332585375,-0.001881868176,0.0023270143910000003
913.0,0.0005825001858000001,0.00012732244679999996,0.0009623454854,0.0016824195584999998
914.0,-3.289163160000001e-05,0.00048170324630000003,0.001791002394,0.001896079903
915.0,9.859001350000002e-06,0.00085057759325,-0.0008597320774,0.0014082278115
916.0,0.00078303303635,0.00040212671345,0.0010069083335000001,0.0030981024945
917.0,0.0073026722094999994,-0.011487340812,-0.0023266436683,0.013834066095999999
918.0,0.0044806890431000005,-0.005447278651,-0.0203641640435,0.026801690515
919.0,-0.00393426352,0.012600677961,0.018227269009999998,0.024359303085
920.0,0.009340141174,-0.001319523080000001,-0.003868242614,0.03713809849
921.0,0.01041769221865,-0.0023730229915,-0.0022756680145,0.0127872372135
922.0,0.0016106289275000002,0.00038302835414999995,0.001814344843,0.002630916308
923.0,-9.761387443000001e-05,0.0010748136384,0.000364991008845,0.00117615004
924.0,0.0005002371539,-0.0002827576922,-0.0010441925864999998,0.0024604026564999998
925.0,0.00047215406665,-0.00039576059965,0.0033475192825,0.003416446245
926.0,-0.0010811797605,0.0008021314022,-0.0022620954374999998,0.0026329007854999998
927.0,0.00117136649355,0.00027798734465,0.0014398046419999999,0.0033995062830000002
928.0,0.00031703713195,0.00069885591565,0.0005905469641,0.00100555613255
929.0,-7.2437983e-05,0.00026951190644499995,-0.0023957797585,0.002483845555
930.0,0.0008657926254499999,-0.0009549183361500001,0.004187847402,0.0043957643985
931.0,-0.00022849710379999999,0.00032012257735,-0.0012978995357000001,0.00155252407965
932.0,0.00044350651679999996,-0.00010716305689999997,-0.00035862487900000005,0.004844291158
933.0,0.0004901914129999999,0.00022387529623,0.001337946684,0.0024492219224999997
934.0,-0.00043280718715000004,0.0011169616089499999,-0.002090070083,0.002458217748
935.0,0.00018535601536499998,0.00039521311225,0.0020655477747000004,0.003027338611
936.0,9.4430813305e-05,0.00020159386929999998,0.00082971793265,0.0013513346996
937.0,0.00047625384949500006,0.0006634135984499999,-0.00160433919985,0.0026925874665
938.0,0.0006032325237,-0.00079104161705,0.0029041740438250003,0.0031800409699
939.0,-0.0002694991742,0.0012276005656000001,-0.0030801421405,0.0033283414619999997
940.0,0.0009529618153,-0.0005079486509,0.0015931263259999998,0.0031271550320000003
941.0,-0.00021220407295000006,0.0011936479215,0.00052202202425,0.002533611482
942.0,0.000342620455225,-0.00013907430564999998,-0.0025739420568,0.0029534867165
943.0,0.0009644675204,-0.0007448363036000001,0.0049613312535,0.005172066623
944.0,0.000182160221962,0.0009225190123499999,-0.0011973572485000001,0.0017515798265
945.0,0.0005538526354800001,0.00091778262115,-0.0003257332575,0.003822619273
946.0,0.00025459820495,0.001345429003,0.00017683389950000003,0.001793912345
947.0,-6.777798152e-05,0.0009598966425,-0.002538266309,0.0027840886575000003
948.0,0.00073396721018,-0.00045699845160000003,0.0027654265269999997,0.0029449779529999998
949.0,-0.000103330652225,0.000362189913165,0.00037603835295000004,0.0010826025968
950.0,-3.819673348e-05,0.000339526519825,-0.002237691969,0.002308725281
951.0,0.00038408937557,-0.00017082428029999998,0.0033623735555999997,0.0035003277025
952.0,-0.000448327793105,0.0010100574375,-0.0016258524484999998,0.0021135526305
953.0,0.00048431760440000005,0.00048734362875000003,-7.135575299999997e-05,0.0039995325185
954.0,3.515372704999999e-05,8.948221525e-05,0.0033470609175000002,0.0034410183910000003
955.0,-0.00048208097329999997,0.00041095016734999995,-0.0038521745194999998,0.0039054655075
956.0,0.00020053285244999998,0.0001835565174,0.0002875365295000002,0.0028632738405
957.0,-0.042833897465000006,0.038879525455,0.039827275579,0.071349898785
958.0,-0.005938263648499999,-0.006147165914999999,-0.011065071684999999,0.053064962765
959.0,-0.0021135524849999997,-0.005249928695,0.028685746908400003,0.043268476265
960.0,0.011027184745500001,-0.00682236094355,-0.020990166228999997,0.025735464043
961.0,0.00188510217465,-0.00139409587295,-0.0015579259200000002,0.0063019322125
962.0,0.00115581196655,0.00070307452975,0.00193771604085,0.0027332823316
963.0,-0.0005793171514500001,0.001479062391,0.0018398093505,0.0046240179090000005
964.0,0.0012923228151999998,-0.00093051487125,0.0033135666405,0.0037128515435
965.0,0.0004763981491,0.0008138026272,0.00156818810535,0.0019647287125499997
966.0,0.00081446045985,0.0005300433373499999,0.0026980092902000002,0.0031450762239999997
967.0,0.00020371591192,0.0008222907874000001,9.336979300000002e-05,0.001656127286
968.0,0.000127322444935,0.00015490897374999997,-0.0017602328015,0.001839014532
969.0,0.0002196312175,-0.00047745916855000003,0.0022281427865,0.0022914268220000002
970.0,-0.000249339788,0.0003161840716,-0.00075650752695,0.00135355190365
971.0,0.0003533197847,0.00026101101120000003,0.0011045222055,0.0043217711745
972.0,0.0004954965149,-0.0002705601964,0.001576676276265,0.00189040337765
973.0,0.0002737432566,0.0007851550762,-0.002193129113,0.0024884908275000003
974.0,0.00090934114585,0.00010503252895000003,0.0029222113791499997,0.0032025451125
975.0,-7.946193789e-05,0.00069080914445,-0.0014467861621,0.0016181818885
976.0,-9.867489484999999e-05,-0.000437140392415,0.000268438154,0.0030133928280000003
977.0,-0.0001103121663,0.00036951095465,0.0009219969968,0.00100568254515
978.0,0.0004714368169,0.0006733871909,-0.00230826255585,0.00256201171
979.0,0.00017257284185,-0.00033129724675,0.004075701802,0.004113666314
980.0,0.00013954964375,0.00100667491115,-0.0010482202246499999,0.0014645567796
981.0,0.0007342260984,0.00100266425475,-0.0015289303567,0.0023358820805
982.0,0.0004201640683,-4.5623875189999994e-05,0.0020742948312000003,0.0021198376667
983.0,-0.00010967555407,1.986232924999998e-06,-0.0010564919386,0.00147168681675
984.0,0.00036936241278,-2.5091010749999992e-05,0.001697628354,0.0029339131605000002
985.0,0.00059629345045,-1.4854286150000034e-05,0.00096658956105,0.001873048161
986.0,0.00061008671535,0.0008880740534,-0.0020010844244,0.00244438462085
987.0,0.0002907195826,-0.0001198953014,0.00225785135335,0.0023899688438
988.0,-0.0003013297873,0.0009199046635499999,-0.0017644768824999998,0.0020679288605
989.0,0.000122900112,0.0004640606039000001,0.0007482570295000001,0.0032818315525
990.0,7.3150988715e-05,0.000129720351,0.0018808411085,0.0018917571645
991.0,7.427142619e-05,0.0006939073230500001,-0.0027236392995000002,0.002828392364
992.0,0.0013390077115,-0.0008339620144999999,0.0044722008765,0.0047507144174999995
993.0,-0.00019734978875000003,0.00046260488235,-0.00278623950055,0.0028612305385
994.0,0.0011957699612,-0.001343251787,0.00304406744585,0.0042680842569999995
995.0,-0.00142070627205,0.0025124962440000002,-8.806468280000003e-05,0.0032585383485
996.0,-0.006515089562,0.017463007495000002,-0.0187129446892,0.03044835195
997.0,0.011813400866499998,-0.014162228304000001,0.00088510321,0.023281517930000002
998.0,0.0009061113775000003,-0.003263698654,0.008472247679,0.013807643290000001
999.0,-0.0034822688125,0.008725831611,-0.0049634532875,0.013978079465
1000.0,-0.000755985501,0.0028946587714999998,0.0002416961655,0.007895659026
1001.0,-0.0011483423570500001,0.0014722676315,-0.00038572332550000014,0.0034799510795
1002.0,-0.0015427236495,0.002502947077,-0.0023013531952,0.0043642349195
1003.0,0.0007236244794999998,0.0016426505236500002,-0.0007177845814999996,0.00878573731
1004.0,0.00036286894500000004,0.0026355745845,-0.0060096194465,0.0072432626885
1005.0,-0.0006508764970000001,0.0006753776485,-0.0005720470550000002,0.013591957055
1006.0,-0.0038292225027999997,0.003612774343,0.0035140995150000002,0.007595398508
1007.0,-0.011957551115549999,0.0076666064205000006,-0.0418955226,0.044523466015
1008.0,-0.019829409739999998,-0.006626072259,-0.007783645491999999,0.031653457115
1009.0,0.016369422401,0.017680843557,0.062988535605,0.070855420875
1010.0,0.006072232024999999,0.03689700492,0.10036406488499999,0.17930420684999998
1011.0,-0.14168866009999997,0.89972511785,0.48003744915,1.2709470095
1012.0,0.22283430811,-1.4516498955000001,0.22594260395,1.5508517605
1013.0,0.15014209841999998,0.04146861918,-0.2260413551,0.27895732235
1014.0,0.04526949525,0.05587439382500001,-0.09609661524,0.121659835065
1015.0,-0.07017694881,-0.06827772221749999,0.2226328442,0.26215370825
1016.0,-0.14242713155000003,0.013903610200000027,-0.0014684521500000075,0.7699275729
1017.0,0.21608528795,0.170204645595,0.36310981965,0.5251867509
1018.0,-0.99712678885,0.618941992685,0.23368655419999998,1.5131920855
1019.0,0.49239196755000003,0.09999586545,-0.32605368353,0.9098126823
1020.0,0.20395454434,-0.407567419575,-0.1847333404,0.569701107675
1021.0,0.055023455744,-0.012549749160000002,0.0095788918095,0.064177471425
1022.0,0.01751001935,-0.0047883848905,-0.015455883786,0.038810153305
1023.0,-0.003940629672,0.0029740401309999998,-0.0038377106905,0.008729653151
1024.0,-0.0019225689035,0.0017050597299999998,-0.0013124822005,0.0031719128795
1025.0,-0.0030366572945,0.0022769115316,0.001474258112,0.005201327322
1026.0,0.00044775055535,0.0019002874364999998,-0.0055268551455,0.005880748362
1027.0,-0.0008548641313,0.0021876075455,-0.00137182294035,0.003743037581
1028.0,0.0005367914865,0.00021605342085000004,-0.0034858254355,0.0038507102895
1029.0,-0.0002763448700000001,0.004051926475,-0.0023580328774000002,0.005397893842
1030.0,-0.0008785248914500001,0.002144322184,-0.0005050456917,0.002506160943
1031.0,-0.0001710450116,0.0016436478928,-0.003399496585,0.0043070066195
1032.0,-0.0008523601123500001,0.002696693612,-0.00190824092365,0.00345289719
1033.0,-0.0012817126105,-0.0012955058579999998,-0.00257403542035,0.0039241981095000005
1034.0,-0.00040530977469999997,0.005286003474,-0.00144723178425,0.0055747886745
1035.0,-0.00030132984015000005,0.0016997546724000002,-0.0024159433934,0.003007182488
1036.0,-0.0005559746873499999,0.0015427236121999999,-0.0002790483895,0.003455386001
1037.0,-0.00032619165765000003,0.0007148603162,-0.0036531228505,0.003795744889
1038.0,-0.000661015694915,0.002238752981,-0.00204776941355,0.0033615080505
1039.0,-0.0005489634644500001,0.0015223095970000001,-0.0020787214065499998,0.0033570621909999997
1040.0,-0.002171908655,0.002374563565,-0.0005061067077,0.003502174361
1041.0,0.0010366169125,0.001970314824,-0.0006206969091,0.0024060034925000003
1042.0,-0.00028647548465,0.00139948586635,-0.005158681045,0.006394484867
1043.0,-0.0005433273031,0.00147213180955,-0.0007641468914,0.002047557811
1044.0,-0.00079986930675,0.0020744433703999998,-0.0017363046615,0.003416004684
1045.0,-0.0005802508224,0.0022282955715,-0.00152676588094,0.0030643019225
1046.0,0.0046956637660000005,-0.001023364885000001,0.003838084415,0.02162830501
1047.0,0.0009920540310000001,-0.00367855767245,-0.0106462784175,0.012335292775
1048.0,-0.00029143683899999996,-0.006092998613,0.0017298536806499999,0.006553983524
1049.0,-0.0010331282663,0.00021881634825,-0.0020789123965,0.002378694699
1050.0,0.0009267800757,0.0018812570285,0.0020453077465,0.0032290755755
1051.0,-0.006330213094499999,0.0110869711315,-0.00018598416100000037,0.0186334902485
1052.0,-0.0099360441323,0.0031135260785,0.00208605518215,0.012235564356
1053.0,0.0001082240760000001,0.0004530556916,5.4112001000000036e-05,0.004506930246
1054.0,0.0095271395975,-0.0085535133255,-0.019950264245,0.023895120994999998
1055.0,-0.003133193155,0.0030323962275,0.0060372059325,0.007625822282999999
1056.0,0.0003006677096,0.00046402240649999997,-5.7027723099999984e-05,0.0011333083655
1057.0,0.0012456379195,-0.0017878193275,-0.0036530931430000003,0.0043010768105
1058.0,0.00114799009075,-0.000121185504,-3.0438552499999997e-05,0.0017448271345000001
1059.0,-0.00040106570155,0.0003013297854,-0.0031469864289999996,0.0031922010445
1060.0,0.00108966792445,0.000259949989895,0.000563401819,0.0028509275785
1061.0,0.0004910869141999999,-0.000243945560406,0.0011238540013000001,0.0013285481145
1062.0,0.00114442930825,-0.00058105295755,-0.00156031958335,0.002850775691
1063.0,0.00028762564615,0.00012103271894999999,0.0014782305621,0.002102052833
1064.0,-0.00099495700095,-0.00061146179655,0.00015552860970000006,0.0020478782145
1065.0,0.00068860222305,0.0024414078804999998,0.0029050737815,0.0039130975200000005
1066.0,0.0003772394252,-0.00021125764820000004,-0.0009057082104,0.00154923368765
1067.0,0.0015607609655000003,-0.00045836079989999997,-0.0015512117830000002,0.0036053637394999997
1068.0,-0.0015237653125000001,-0.0006101928182499999,0.0037100953995,0.0040667904515
1069.0,0.00036259734685,-0.00066613405475,-0.003189796479,0.003409679421
1070.0,0.001060056968,0.0016732673265,0.0017741958266999998,0.0035320208775
1071.0,0.0008065749564,0.001539527827,0.0023645263445,0.0029513927075
1072.0,0.000253706947875,0.00162932834695,-0.0006089917423500001,0.002167641265
1073.0,0.0007883381383,-0.00063979528505,0.00235334318665,0.0026974791709999998
1074.0,0.0006705776089,0.0006694529263,-0.00062418555425,0.0015498490890999998
1075.0,-0.00054748651325,0.000511411817735,-0.0008456332385000001,0.001673419401
1076.0,0.00105858427145,-0.00042171740215,0.00111425813255,0.0017142666489999999
1077.0,-0.00039298072536,0.0008710552987,0.0031664370425,0.003514283416
1078.0,-0.00046154386292,-9.3369792049e-05,0.00021114305729999998,0.0009009490943
1079.0,-0.0025383384629999997,0.0024456222505,0.004338792409,0.005672088899
1080.0,-0.018516927576,0.023408231534999997,-0.0056244690805,0.031036033990000003
1081.0,0.010789516177,-0.017629914567,0.0080425344455,0.0255831952035
1082.0,0.00100054221855,-0.0022270817615,-0.0026663441927,0.0040207775675
1083.0,-0.0022251761642,0.0012220917529000002,0.003450472192885,0.004479997745899999
1084.0,0.0005623407985,0.000508228759355,-0.00036605202921,0.0008675086999000001
1085.0,0.0006090256949499999,0.00019522774870000002,-0.0005825001855,0.0030613758
1086.0,0.0005984154912,1.273224449e-05,0.004171932111,0.004214650726
1087.0,-0.0008143416255499999,0.00047038004055,-0.001123705458,0.0014908166075
1088.0,4.087050484999999e-05,8.630764125000003e-05,-0.0021789666143,0.002504350572
1089.0,0.00087746384865,1.485428615e-05,0.004634536985,0.0047289329115
1090.0,0.0093879082615,-0.0028965856482000003,-0.0010716305717,0.009955719385
1091.0,-0.0048224521765,0.0018322548409999998,-0.0021582257803,0.0064973978205
1092.0,-0.00019387813099000002,0.0001778991679,-0.0008298410114000001,0.0009086045149000001
1093.0,-0.0086138896069,0.0057808719125,-0.002054992737,0.011180876268
1094.0,0.0075321581985,0.00011680119500000023,-0.008570752712,0.026985953195
1095.0,0.015267022245,-0.00925634174825,-0.022936077595,0.031668652505
1096.0,-0.014164206106,0.005585440404,0.0096431345555,0.018869289640000002
1097.0,-0.0014429876945,0.0027989717285,0.00047215407499999994,0.004298087728
1098.0,0.00085199935615,-0.00065358854415,-0.001111949337,0.0017076548715
1099.0,-0.00048700834448499997,0.0010270677439,-0.00062175792815,0.0016858094355000001
1100.0,0.00061682633255,-0.00024499382800000004,-0.0042656286365,0.0061313996875
1101.0,0.00026313305840000004,-0.00089337916645,-0.001019640617885,0.0016182196831499998
1102.0,-0.00065783263865,0.00075226346755,-0.0034695365985,0.003761092789
1103.0,-0.00021350700515000002,0.0014631471095,0.0034748120030000003,0.0038344646705000002
1104.0,0.0005482122391,-0.00092307076544,-0.005204716603,0.0053535354465
1105.0,-0.00073634814077,0.00109921709765,-0.0024148823615,0.002975825008
1106.0,0.00026949917515,-9.761387164999998e-05,-0.00020265489154999998,0.001140684181
1107.0,-0.00078727711205,0.00011140715150000004,-0.0029772231604999998,0.0036091145595000002
1108.0,0.00043153820660000005,0.0002784244784999999,-8.76699955e-05,0.0038487598965
1109.0,0.00016724651959999998,0.00046658582985,0.0019867182086500002,0.0020814100069000002
1110.0,4.2440815000000355e-06,-0.0004382014121,-0.0014992217871,0.00193052776
1111.0,0.000738470180865,-0.00022281427769999998,0.0006100867144999999,0.003127963076
1112.0,0.00024921671055999997,-0.001467760399855,0.0006708492300499999,0.0023488860780000002
1113.0,0.017437661895,-0.0222507856185,-0.008162832851,0.029443434995
1114.0,0.0020095725825,0.0057295100011000005,0.0080425344585,0.012322211365
1115.0,-0.0019607656445,0.00508971473821,0.00278836152025,0.0069928721735
1116.0,-0.000204530779,0.0016074840585,0.00135821217585,0.0043463637239999995
1117.0,0.0002151834285,0.0022817964554250002,0.001266599475,0.004293515166
1118.0,-4.4002635100000005e-05,-0.000203512192255,-0.0015035592440000001,0.00156746837
1119.0,0.001450792575,-0.0001470149775,0.0027087637806,0.003659625394
1120.0,-0.000224936319405,0.00134749587645,0.00064297834695,0.0015251697014
1121.0,-0.0001464208117,0.0012912617955,-0.002088088097,0.0026790945585
1122.0,0.00026058235994999996,-0.0023492349185,0.004144651153,0.004885356568
1123.0,-0.00019166272045,0.00080579404725,-0.00022384134649999993,0.0016462985925
1124.0,0.0002297109111,0.0020043226565,-0.0033343074494999996,0.003968553975
1125.0,0.00045411672025,0.0005846222264,0.0009453691536100001,0.0016395833825
1126.0,0.0006912844846500002,-0.00030310381225000005,-0.000615587044975,0.001918016606
1127.0,0.00018992264700000002,-0.0008466942542700001,0.0016180560665,0.0038628793285000003
1128.0,0.00024404741836800002,0.0005037385195,0.00019416672749999998,0.002342975472
1129.0,-3.83070796e-05,0.0015512924258999999,-0.0021072798335,0.0027288898765
1130.0,0.00070663956924,-0.0013973638275,-0.0002493397905,0.0031562403639999997
1131.0,0.0015024048466,-0.00166261892775,0.0009729556834,0.002477039722
1132.0,-0.00086499473825,0.0017704695267500002,-0.00245117351115,0.00317401710955
1133.0,0.00213689502755,-0.001466330147,0.0037369137572500002,0.005528493924500001
1134.0,0.0006875412024,-0.0016806562695,0.005079104522,0.005426467997
1135.0,0.0009145995627,0.00032361121609,-0.00312682704,0.00335223898
1136.0,0.000473215087,-0.00021220407488,0.002354404211,0.002411516292
1137.0,0.0001871724822,0.0007078830834,-0.0010007798817000002,0.00134780547055
1138.0,0.000663137733855,0.0007130056898999999,0.0008042534435,0.0031414916335
1139.0,0.0012371497546,0.00023766856295,-0.00037560121255000005,0.00140812087575
1140.0,-0.0009952371111199999,0.001838748306,-0.00087109772745,0.0024062770835
1141.0,0.00058542435775,-0.0008870342537,0.002696566305,0.0029762824005
1142.0,0.0005443034521,0.00042865222940000004,0.00010185795595,0.00083380920675
1143.0,0.0006567716118,0.0002567669315500001,5.835611000000007e-05,0.0031566478115000003
1144.0,0.00079258221985,-0.00046154386449999993,0.00217933585,0.002476429647
1145.0,0.000285592732165,0.00062579406015,-0.0010479401151,0.0014651124878000002
1146.0,0.0005551767889,-5.653116549999995e-05,0.001865447820095,0.0026251342705000003
1147.0,0.00023872958425,0.0005591577355,-0.00087746384975,0.0012809794175
1148.0,-0.0009421860922999999,0.0015681881105,-0.00083077895315,0.0024846541345
1149.0,0.00048064222965,-7.108836509999999e-05,0.0012435158732599998,0.0015732565175
1150.0,-0.00043714039440000005,0.00023979060646999999,0.00103449486515,0.0012473559191
1151.0,0.0052064269952,0.0020668676543,-0.0028392905155,0.0074049164485
1152.0,-0.004328963131999999,-0.006867984913000001,-0.001728402208,0.014084823225
1153.0,0.00153847954285,-0.00060372063595,0.00253265561735,0.0036442683435
1154.0,0.00031512303100000004,0.0018610296950000002,0.0008116805644999999,0.0062422668130000004
1155.0,1.0610213500000104e-06,0.0006684428291999999,0.00014535977470000002,0.0018760977485
1156.0,0.0006567716126,0.00034164856409999995,-0.00106208139005,0.0021063518575
1157.0,0.00059523242915,-0.0006546495692,0.002003206466,0.0021980967745
1158.0,0.00043926243505,0.0008721587449,-0.00053051018725,0.00113022023635
1159.0,0.0001368716283,0.0016732291325000002,-0.0009082334407500001,0.0019966967125
1160.0,0.00016127509690000002,-0.00067905304045,0.0010716305780049998,0.0018141462755
1161.0,0.00034483162354999997,0.00061433079685,0.0003130010077,0.0009507792285000001
1162.0,0.0010507539404500002,0.0003214297545,-0.00077202388785,0.002144051854
1163.0,0.0006729118535999999,-0.00035530601900000004,0.0010560590433000001,0.0024732253125
1164.0,-0.00061751385815,0.0008021314029999999,0.00030451284746500003,0.0012404030639
1165.0,0.000310832284835,0.0010836880062,-0.0020136129521,0.00238639820245
1166.0,0.001011152417,-0.00143131647885,0.0017655379034999998,0.002531198063
1167.0,-0.00038090631442,0.0009559793574,-0.00062175793945,0.0012469466945000001
1168.0,0.00042016406827,-0.0001241393792,-0.00042016406899999994,0.0023936887669999997
1169.0,0.0006540723761499999,0.00035047200601499997,0.0015606124279,0.0019692040885000003
1170.0,-0.0003119399900755,0.0004403234489,-0.00084245017905,0.0012804406928
1171.0,0.00018249550534999999,-0.00100372527355,0.00014217672499999996,0.001709674272
1172.0,-0.0002355465231,0.0011034611893,-0.0009411250723,0.001574184325
1173.0,-0.0003515754671,0.0003151230495,0.00037432798809999997,0.00121256977565
1174.0,0.0007734838529,-8.700366979999996e-05,0.00022599734000000002,0.0014764141235
1175.0,0.00053271710951,0.00014458312049999995,5.3386301150000004e-05,0.001476618805
1176.0,-0.00026843815475,0.0006673818136999999,-0.0012965668973500002,0.00152220307215
1177.0,0.00044350651655,-0.00022281427865000002,0.0017888803465,0.0023493974202
1178.0,-0.00020053285074999997,0.00035650284760000003,0.001301871999605,0.0018753368664999998
1179.0,-0.0017994905451,-0.00056658487925,-0.0015628830090000001,0.0029373043795
1180.0,-0.0075487397852,0.0047820909724,0.013124117516,0.0164406417645
1181.0,0.0074175934005,2.3342428000000005e-05,-0.010155026015,0.012884862875
1182.0,0.0034168590737,-0.0020270284826,-0.004816493507,0.008966663058999999
1183.0,0.00166191865225,0.00041260111040000003,0.000595049935395,0.0024787237585
1184.0,-0.0015787983165,0.00013156652829999997,-0.0002567669305,0.0018064437220000002
1185.0,0.00135348003045,-0.00019684898520000004,-0.0008735932465,0.0029200878675
1186.0,0.0005169885436,0.00096760814275,0.0017321284935,0.0021097110215
1187.0,0.0005220262682999999,0.0003538163450499999,0.0007374176485,0.0012072557875
1188.0,0.00030403326625,0.00055678954175,-0.00196367709015,0.00232496709795
1189.0,0.0008036465392999999,-2.1037908250000012e-05,0.0037592842995,0.0039388970450000005
1190.0,-0.000175068361801,0.00076817875285,-0.0013156652645000002,0.0015550507885
1191.0,0.00046105579440000003,0.0010997433702500002,-0.00114162397035,0.001991157179
1192.0,9.973591425000003e-05,0.000186739585,0.00140479097595,0.00181224251
1193.0,0.00024399648940499996,0.00032158254599999993,5.66584879999998e-06,0.0019476672655000002
1194.0,-8.99193547e-05,-0.0001458605957,-8.362113849999997e-05,0.0031609452765
1195.0,0.0008180467087000001,0.0003257332578,0.00033422141699999996,0.002467103066
1196.0,-0.0003973436421,-3.40884617e-05,-0.00091186637455,0.00128035931485
1197.0,0.0010566617025,0.000769061508,0.0009243651839999998,0.004894792944
1198.0,0.0005517305947,-0.0004010656997,0.0007936432401235,0.0011929265789
1199.0,-5.173535345e-05,-0.0006745670436,9.027161347e-05,0.0009432758674000001
1200.0,-0.00031724509290000005,0.0013909977138499999,-0.00028010937799999996,0.003191666324
1201.0,0.0008139469250000001,-0.00066032390915,0.0020934313945,0.0024502109545000003
1202.0,-0.001100469112,-0.0005021809414,2.660614689999996e-05,0.0013750168449999998
1203.0,0.00109497302625,0.00013793264310000002,-0.0006217579338500001,0.0013862478967999999
1204.0,-8.488164850000001e-06,0.0001941667189999999,0.0016477646396,0.0030790445370000004
1205.0,0.00025676693065,0.0012955058770000001,0.001863151778,0.0023388318545
1206.0,-0.00072785997685,0.00050610671655,-0.0010302507836499998,0.002005732138
1207.0,-2.3342448250000006e-05,-0.0007214938464,0.0031077286715000003,0.0032690208865000002
1208.0,0.00054218141045,-0.00012944448384999999,0.0013708383284999999,0.0015266919964999999
1209.0,0.0004456285575,-0.0009888709860499999,-0.0010058473152,0.0023317544515
1210.0,-0.015569412887,0.024092589515,0.0085146884955,0.037094929192
1211.0,0.009760950348,-0.0029001803255,0.0141972887325,0.018812055561
1212.0,0.0123874128885,-0.02222943787,-0.021824128067050003,0.03573169222
1213.0,0.0201931614815,-0.0065046999880000005,0.00040935437500000014,0.02144771304
1214.0,-0.007086555084,0.0011119493525,-0.006161345255999999,0.009846727538500001
1215.0,0.0031629017505,-0.0075534040725,-0.0024520180930000003,0.014646321835
1216.0,-0.0105444205515,0.011156629225,0.0101433547525,0.025185422865
1217.0,-0.09884041364,0.12980311041,0.07032973555,0.182460256805
1218.0,0.10963098978,-0.044622272465,0.13966847795,0.24064736332
1219.0,-0.031954751584999996,0.066086712935,0.01770312516,0.192223046
1220.0,-0.152641162665,0.23715931610000002,0.03732874239,0.32602551205
1221.0,0.38501034089999997,-0.076707527295,0.35611557304999997,0.9028413288499999
1222.0,0.11322042264999999,-0.79900988025,-0.29278751105,1.3323018995
1223.0,0.034593507915,0.01656146695,0.14948716065,0.1760322182
1224.0,0.022155166396,0.024911697250000003,0.0211217326705,0.051561506975000004
1225.0,0.0031127834004999995,0.01558241692,-0.002145345031315,0.018224868145
1226.0,0.0115864910095,-0.00922456206335,-0.00046363197530000004,0.017045134899999998
1227.0,0.017345187607,0.018781524855,-0.011409096895000002,0.028369050335
1228.0,0.01268025447,0.008835116665,-0.011130103709999999,0.01905417346
1229.0,0.0107124691415,0.0028571623425,0.0015441793880000003,0.0129683421655
1230.0,-0.19434604004,0.431097883695,-0.37949621975000003,0.77319750185
1231.0,0.1953083866,-0.3276802257,-0.6304943819,0.84609888855
1232.0,0.41593696185,0.012601738550000019,0.001446170699999999,0.69884523175
1233.0,0.39758979955,-0.7833460381499999,-1.1240863636,1.432420546
1234.0,0.3676881228,-0.8392342241499999,-0.7507514908,1.2021131612
1235.0,-0.03911451670000002,0.92007336625,0.436322348995,1.10505723715
1236.0,-0.45813904850000003,0.88231908058,0.6989927960850001,1.3258622627
1237.0,-0.11012967086,0.028842777645,0.05987762425,0.25295465615
1238.0,0.042201219530499996,0.0007958926099999996,-0.017589413127,0.04979812336
1239.0,0.01182613301,-0.01786227798,-0.091677465475,0.096206079205
1240.0,0.023806114145,-0.04213842421,-0.06324211945,0.08028626091999999
1241.0,0.031024235715,-0.03646196514,-0.060789040405,0.07769364472000001
1242.0,0.014907336164499999,-0.012495636941,-0.021453831997,0.029982771249999998
1243.0,0.00158304239055,-0.0063003389659999996,-0.01309829652,0.014674088799999999
1244.0,-0.0041889084594999995,-0.003804819087,-0.0101231953875,0.0119774878005
1245.0,-0.0034673594105,-0.00062399882465,-0.00207046667235,0.005445923694
1246.0,-0.26061631160750004,0.45834594751499996,0.7588980078700001,0.92562820764
1247.0,-0.58144340899,0.12360356834,0.66133505815,0.9214197967
1248.0,0.09469027938499999,0.1252809852,0.171031505465,0.5860340119
1249.0,-0.047814883345,-0.084843433325,0.0105412373656,0.09890353013
1250.0,-0.0001464208635000002,-0.0101995888125,-0.0010854238735,0.015753298114999998
1251.0,-0.004498726448,-0.004132674344999999,0.0054462175889999995,0.016328975065
1252.0,-0.005153375940999999,-0.0044074786485,0.0052923696035,0.017114068125
1253.0,-0.0076342538249999994,0.006356547625,0.0048422422865,0.026417094125
1254.0,-0.039327780964999996,-0.08626838425,-0.10965645569500002,0.24879839850000002
1255.0,-0.43830008945,0.4435160666,0.8399992207,1.0927977475
1256.0,-0.033530366071999995,0.5787844932999999,-0.24628935386,0.7355025749499999
1257.0,0.4665073168,0.150776299645,-0.34853352116999997,0.6543010431
1258.0,0.2794228984,-0.051211209140000005,0.0137317255605,0.298785396
1259.0,0.135605830745,-0.0563115339,0.007284966050000001,0.23355153015000002
1260.0,-0.005689191236,0.016697277583500002,-0.0062472879045,0.019891600167500002
1261.0,0.0024679333921050002,-0.0013740213965,-0.0016456425963,0.0050171279925
1262.0,0.0012224185477,-0.0013305237901855,-0.0029474764000000002,0.003823937912
1263.0,0.0007741969274499999,-1.4119726000000072e-05,0.000530037667,0.003938011294500001
1264.0,-0.0008615485441,0.001488611584,0.001192586901,0.002148296259
1265.0,3.8196733499999995e-05,0.00025570590935,-0.0009506742556,0.00130221982155
1266.0,0.00024476042405,0.00017188529975,0.001809638154,0.0018482703155000002
1267.0,0.00057507304846,0.0011618173073765,3.1830613099999966e-05,0.001914958213
1268.0,0.0005900334302499999,0.0003742006666,-0.0006298216944,0.0011872075494
1269.0,0.00014245683955,0.00076752092055,0.0006861109483150001,0.0011048266908
1270.0,-0.0002074040187,0.00079178857645,-6.507025739999994e-05,0.001261234023
1271.0,0.00027590349407499997,0.000431432105615,0.0009747169773000001,0.00135696136575
1272.0,0.000120943590432,0.00064332211755,0.0007877779197,0.00108841193505
1273.0,0.0006199839134,0.0010120012341,-0.001715075774,0.002199228654
1274.0,0.000264194073225,4.244081405000002e-05,0.0025602421629999997,0.002614544742
1275.0,0.00016551917845,0.00018143448404000001,-0.00064722242835,0.00153786171695
1276.0,0.0005856832467,-4.244085199999977e-06,0.0004827642705,0.0022826575265
1277.0,0.0004954965149,0.0004106148849,0.00058250018565,0.0015181265884999999
1278.0,0.00032573325494999995,0.0005485475336,-0.000572951002,0.0012322005286
1279.0,0.00014748183205,0.00040424876175000006,0.00092202670545,0.0013836861299
1280.0,0.0003849254587,0.0006400159762,-0.0014105883904,0.00174079755115
1281.0,-0.00012626142455000002,-3.50136742e-05,0.0018398093273,0.0018996641999
1282.0,0.00041885264715,0.00015259595027999998,-9.670139699999997e-05,0.001728281003
1283.0,0.006478463063,-0.0092516477805,-0.0081424910345,0.0139960531495
1284.0,0.047940143025,0.0096641175,-0.07375951365,0.101937683435
1285.0,-0.14054700320000002,0.05218204286,0.060731745235,0.16535949595
1286.0,-0.0182389401935,-0.006266386357,0.033499596245,0.042168108829999995
1287.0,0.021334997616499998,-0.005816513707000001,0.0010970950899999998,0.035627835405
1288.0,0.003309322559,-0.00227376665905,-0.0066144010535,0.008491965277
1289.0,0.002301353186,-0.000629185085,-0.0033698007035000005,0.0043151507249999995
1290.0,6.896632434999999e-05,-0.00010610203744999998,0.000543242430955,0.0011524608837
1291.0,-0.0005305101872,0.00124563792,0.0003883334571,0.001408494856
1292.0,0.0007225548739500001,0.0007236158965150001,-0.0015936526025,0.0022772703285
1293.0,-0.00073422609915,0.00021008203349999997,0.00188225014415,0.0029392907895
1294.0,-2.228143249999998e-05,0.0014185842303,7.214939101e-05,0.00152282417875
1295.0,-0.00019947183039999998,0.00029496366429999997,-0.0004572997774999999,0.0037113890025
1296.0,-0.0003267942753,0.0017347683087500002,0.0023745635975,0.0030721782995000004
1297.0,0.00068117507925,0.00040743182199999995,-0.00015596999505000002,0.0027285573334999997
1298.0,-0.0003289163179,-0.00015597000155,0.0022026782949999997,0.0023118096235
1299.0,0.0003819673348,0.001036616916,0.00038515039595,0.0024531092885
1300.0,0.000507167738985,0.0001931057062,-0.00039788264100000005,0.0022294563645
1301.0,-0.00032467223365000003,-3.60746946e-05,0.0006578326332,0.0016042042160000001
1302.0,0.0011862207788,0.0009241487487999999,-0.0026026829785,0.0030345158739999998
1303.0,-4.137979464999996e-05,-7.108836420000001e-05,0.0023554652283499997,0.0025489863404999998
1304.0,0.0016032017832700001,-0.0005612797715,-0.001031311803751,0.0031205793760000003
1305.0,-0.0043650378335,0.00031724506795,-0.0037400968259999998,0.006029976857
1306.0,-0.0037910257875,0.007428203639499999,-0.00559582145525,0.01177263333
1307.0,0.0018811891117,-0.0004498726219,0.0023660754365000002,0.0048878724665
1308.0,-0.0013602281184,0.0012923228115,0.0018716399425,0.002730664422
1309.0,-0.0009432471128000001,0.0010642034364999999,-0.00052944916685,0.0018680128965
1310.0,0.0005336932481499999,0.00017825142295,-0.0005114118204999998,0.0036323150294999998
1311.0,-0.0004806422287,0.000250400809305,0.0023894178815,0.0025348061715
1312.0,0.00109815608765,0.0007363481399,-0.002846717662,0.003153648611
1313.0,-0.00021432611563499998,-2.228142880000001e-05,0.002936904393,0.00299512564
1314.0,0.00074059222135,0.00031300101047,-0.0014398046473,0.00166669441785
1315.0,9.761387444999999e-05,0.00015809203579999999,0.00036499100700000003,0.003135943249
1316.0,0.00060053753195,-0.000227058360155,0.00106208139505,0.00130461989155
1317.0,0.0005209610039,0.0005676459022,-0.0025846456329999996,0.0026994283395000004
1318.0,-0.0005931103893,-0.00031087896975000003,0.0038801515045,0.003939452442
1319.0,0.00114590200805,-0.0003289163085000001,-0.0011363528184,0.0022435175497
1320.0,0.0006015985513999999,0.0013146042360000002,-0.00014429877799999988,0.005118563098499999
1321.0,-4.5623876099999995e-05,0.0008923181339999999,0.00173052422985,0.0022843648415
1322.0,0.0009384046157,0.0009640346215,-0.0023935261525,0.0027581706015
1323.0,0.00032042815126,-0.0018398093265,0.0019756199335,0.0027679590200000003
1324.0,0.0006196358986999999,0.0010132744565499998,-0.00056658488,0.0013713096195000002
1325.0,0.00067693100095,-0.00060690365995,-0.001206380164,0.0033744680934999997
1326.0,0.00057295100225,0.0002079599906,0.0026663442015,0.002813178507
1327.0,0.0008180467086,0.0012753464885000001,-0.0018981654483,0.002612702175
1328.0,-0.00021750917675,-0.0004785201898,0.0028605109265,0.002960036482
1329.0,0.00036923509034,0.00018567856274999997,-0.00016021407649999996,0.0012396000204
1330.0,0.00056764590035,0.00013899366905,-0.0017687209645,0.001941200571
1331.0,-0.00032573325775,-0.00069496833981,0.0023045362475,0.0024556084285
1332.0,0.00012095632267,-0.00013156652920000002,-0.00015066489314999998,0.0005568789403
1333.0,0.00039894366079999997,0.00047427611034999995,0.00011671224049999984,0.0036884883515000003
1334.0,8.275959014999998e-05,0.0009220267064000001,0.0007840940560000001,0.0026405310405
1335.0,0.00064191732655,0.0009941760899,-0.0022716446215,0.0025801521385
1336.0,-0.00021432611566,-0.00013687162833,0.0019628876930000002,0.001983446532
1337.0,0.0002896585622,0.00020477693320000001,-0.00035544182546,0.0005886845786
1338.0,0.00014535979039999997,0.0003575638652745,-0.00116181730895,0.0020677770547
1339.0,0.0003331603976,0.00037454019125,0.002020182793,0.0021494618015
1340.0,0.00101964057875,-0.00026631611215,-0.0011490850658,0.0018357827755000001
1341.0,0.00015703101539999998,-0.0003246722346,0.0020201827922449998,0.0023111896159000002
1342.0,0.00016339713764999998,0.000305573867845,0.0004901914128499999,0.0014687735989
1343.0,0.00014323775055000002,0.0010334338484,-0.00102918976425,0.0023170502455
1344.0,-0.00018567856529999995,-0.00043926243690000006,0.00244246890005,0.0030857100269999996
1345.0,0.0008116805853,0.00042440814900000003,-0.001603201785,0.001933233805
1346.0,-5.941714095000001e-05,0.0008244128302,0.0008053144635,0.0029768150465
1347.0,0.00011671224120000001,0.0005559746753,0.00082547385145,0.0011549207687499999
1348.0,0.0011459020044,0.00021114305175,-0.002467933391,0.002846168284
1349.0,1.4854285250000016e-05,-0.0020679287115,0.0040191451675,0.0045427239045
1350.0,0.00018037346367,-0.000763934655,0.00127004138336,0.0039980568215
1351.0,-0.0005835611960000001,0.002168725636,-0.00023342448890000005,0.0028850872805
1352.0,0.0045337400582,-0.0002801093899999999,0.0045666316937,0.01237996477
1353.0,0.0060817687665,0.004450980474549999,0.0024753605310000003,0.009027540615
1354.0,-0.0027130291011,0.0061464910265,-0.0003108789658,0.0080560207615
1355.0,-0.00143131649235,-0.00037560121299999995,0.0035491131435,0.004944260826
1356.0,-0.000715127733196,0.0032668817214999996,0.00030345182615,0.003385705335
1357.0,0.00090186731635,-0.00074059221865,-0.003067409903,0.0037760825515000002
1358.0,0.0003936385598755,-5.411203450000001e-05,0.0026483068519999996,0.0028621258965
1359.0,-0.0008392671153499999,0.00082759589485,-0.0013602281135000002,0.003323594971
1360.0,-0.0004604828480000002,0.00062600202735,-0.0027162121739999997,0.009263232387
1361.0,-0.00029849473350000006,-0.0008313816060000001,0.00101382196195,0.0030415031800000002
1362.0,0.00085093834115,0.002776690316,0.0003448316291,0.0029445847545
1363.0,0.00066738181555,-0.0010758746608,-0.00207323381005,0.002855824417
1364.0,-0.0002122040749,-0.00012307836345,0.0022058613590000002,0.0023447975215
1365.0,0.00033209938095,-8.488162440000001e-05,-5.83561169e-05,0.00047524066545000005
1366.0,0.0006610156932999999,0.000783033031855,-0.00049019141295,0.0018286701335
1367.0,-0.00016870223955000002,0.000211143052645,0.0011289256784,0.00123601921275
1368.0,0.0005687069207,0.00027480427605,-0.00059098834855,0.001165123659
1369.0,0.0004891813216,0.00033927187565000003,0.00037485425399999995,0.001841799287
1370.0,-6.0478161344999995e-05,-0.00050080161675,0.0015268083189999998,0.0016818125550000001
1371.0,0.00039576059970000005,0.00031300100955,-0.00014005468945000005,0.00088321123305
1372.0,0.00026737713435,-0.00014748183205999998,0.0008679146655,0.0027556463925
1373.0,-0.000162336117305,0.000805314465245,-0.00020371591185,0.00145222478195
1374.0,7.639346695e-05,0.00052626610475,-0.00033740447910000004,0.00113792942555
1375.0,-3.1830611249999996e-05,0.00016551917845,-0.0006291850822450001,0.0009553299939999999
1376.0,7.95765281e-05,-0.00014960387279,0.001136352821,0.001198354067
1377.0,0.0008573044625,0.0003066348882,9.549183367999999e-05,0.0009164595496499999
1378.0,7.957652810000002e-05,0.00090929445915,-0.00111513241335,0.001762941993
1379.0,0.00021750917675,-0.00052202202425,0.001827077085,0.0019161190700000001
1380.0,0.00021114305455,0.00060159854955,-0.0002461567269,0.0006836027187000001
1381.0,0.0005538526355,0.0006408563026500001,-0.00101645751895,0.00157778518375
1382.0,-0.000223875299035,-0.00041379794696,0.0030716539845,0.00313050539
1383.0,-0.00025252284915,0.0007893991557999999,-0.0008307789532,0.0011784216585
1384.0,0.0007151277324000001,0.0012021360807,-0.001138474862,0.0018385464575
1385.0,-8.912571051e-05,-0.00042865223035,0.0021177966675,0.00216374485
1386.0,0.00034695366245,-8.8064692e-05,-7.851550649999996e-05,0.0014756799635
1387.0,0.00025570591025,-8.806468900000007e-05,0.0006981514020000001,0.0037082187515000004
1388.0,0.0002779873381,0.0005198999834499999,0.0007565075219999999,0.002230176191
1389.0,0.0008042534440000001,0.0009315758805499999,-0.0024201874745,0.002806823592
1390.0,-0.00013050550605499999,-0.000220692238815,0.002209044419,0.002226490863
1391.0,0.00055597467625,-0.00024721774632,-0.00052944916699,0.0009186346634000001
1392.0,0.0004997405964,0.00012413938285000002,-0.00030239080799999995,0.002142540748
1393.0,-0.000125200404185,0.0002769263168,0.0019597046315,0.0021042196309999997
1394.0,0.0005719706194,0.0013422332090999999,-0.0024195423725,0.0028475125155000003
1395.0,0.00030663488825,-0.0007830330364,0.0030377013290000003,0.0032472197505
1396.0,0.00048382529075,0.0002779873381,-0.00107693568035,0.0012214697417
1397.0,0.00022387529905,0.00173689035,-0.0009453691506999999,0.0022418631245
1398.0,-1.4854285250000002e-05,-0.00027480427695,0.0019469723875000001,0.0020426160045
1399.0,0.00072785997705,-0.00027586529825,-0.00029390264375,0.00110913145065
1400.0,0.0008541214003,-0.00011140713849999999,-7.427144500000028e-06,0.0038033525739999997
1401.0,0.0002100820341,0.00041698100805000004,0.001124681597,0.002573561042
1402.0,0.0005368763095,0.001265797305,-0.002079599934,0.0025164978105
1403.0,5.729510115000001e-05,-0.00018673958590000001,0.00123821077595,0.0021439016715
1404.0,-0.000142176730205,6.366122249999999e-05,0.0008901960941,0.0009643362706
1405.0,0.00048913039265,0.00022705836015000003,-0.002328939721,0.0024227490905
1406.0,-0.000298146725249,-0.00061751385795,0.0032180747950000003,0.003297316745
1407.0,0.0009708336401000001,0.0011925868972,-0.00121805138785,0.0022842346945
1408.0,0.0005135338611349999,0.00022175325900000004,0.0002588889634999999,0.0039966941005
1409.0,0.00053369325024,-0.00182601606,0.001027067721,0.002982524067
1410.0,0.0006972516579999998,0.025004490025,-0.01231031063,0.029370351155000002
1411.0,-0.03984980332,-0.015943953285,0.0285934380365,0.07151564997
1412.0,0.016302577925,0.006636682429999999,-0.013648966072500001,0.04727771903
1413.0,0.093711140005,0.033846715449999995,-0.08165526650999999,0.1483931204
1414.0,0.008499834259999998,-0.0324481252,0.012213405540000001,0.07777051585
1415.0,0.006914856365000001,-0.0022912734185,-0.01403409115,0.030778069625
1416.0,-0.0031713901484999997,-0.00027162112700000003,-0.005779377788499999,0.010881201739
1417.0,0.0050496675455,0.0015989576264999997,0.0032243855375,0.0131799204605
1418.0,-0.007375152632,0.0018291991114999999,-0.00633641363,0.0104832345255
1419.0,0.004132372949999999,-0.0022945499676,0.0011043439835,0.01859760874
1420.0,0.001827077236,0.0043172918795,-0.0021093085805000003,0.00851661452
1421.0,-0.006121026484949999,-0.0016849003966,-0.00402445050325,0.009403873743500001
1422.0,0.0013008109227,0.00375601211,0.0006514664929999999,0.004822040113
1423.0,0.0029687348470000003,-0.000421225099815,-0.004581485975000001,0.0055165629975
1424.0,0.002228142718,0.0021093084588500004,0.0031448644745000003,0.010735471927000001
1425.0,-0.0025729745085,0.0017931244735,-0.004270607012,0.0070770328335
1426.0,0.00032891632900000026,-0.0011607563154499999,-0.0024827878225,0.011672976330000001
1427.0,0.006773554068,0.0030949963545,0.0025772184794999996,0.011951956801999999
1428.0,-0.0040297554875,-0.0007756058687,-0.0064892004093,0.014146344400999999
1429.0,0.003152291565,0.0035915539760000004,0.0040679520884999995,0.011498155470999999
1430.0,-0.004047398112,-0.000772465248365,-0.006108150057514999,0.0083934733505
1431.0,0.007387884653,0.0026737713485,0.0014960386064999998,0.0088192592095
1432.0,-0.0053051019775,-1.167121205e-05,-0.0048976701007,0.009361077904500002
1433.0,0.004571936915499999,0.0029008296105,-0.0008859521200000001,0.017794590865
1434.0,0.0016467036849999997,0.0002917805859999998,0.0022154103844999997,0.017775490685
1435.0,-0.0026546730514999998,0.0026790764825,-0.0055162449895,0.013132602819
1436.0,0.0040541588075,0.00018886163500000008,0.0023650141634999995,0.016255463300000002
1437.0,5.3050917500000036e-05,0.002098698295,-0.0031087897473500003,0.0059073268595
1438.0,0.0040223282850000005,0.0001899226080000001,-0.0007087616384999999,0.01867733304
1439.0,-0.004351244600499999,0.002553876019,-0.0034769636355000003,0.009801606107
1440.0,0.008686573905000002,0.00042016406349999996,0.0028838533760000003,0.017986761048
1441.0,-0.0024689942655,0.0009888709370000001,-0.009767753605,0.011703976595
1442.0,0.00356715033555,0.0023406109435,0.006124209625,0.0106147082435
1443.0,-0.004898731032500001,-0.0007437753298,-0.0071226298055,0.012066425405000001
1444.0,0.00412220017,0.0027136784298,0.0011004607109999995,0.018772630365
1445.0,0.012262212112000001,0.0023639533664999994,0.000976138879,0.014653090805000001
1446.0,-0.005526855160499999,-0.00010504100780000001,-0.0001888618000000005,0.023458262855000002
1447.0,-0.008284446964,0.0010175184547000001,-0.006803262617,0.012635539254
1448.0,0.009582075137,0.0012912617854,0.00214113917485,0.0101664893225
1449.0,-0.009116287067,-0.0002111430844999999,-0.006080707712499999,0.011427922273000001
1450.0,0.011545841199500001,0.0033254245745,0.0048141125495,0.0146490763155
1451.0,-0.0036000421120000008,-0.0011957699712,-0.004948599008000001,0.01663611639
1452.0,0.00038408929999999945,0.0040700741535,-0.0008488163134999999,0.01756004011
1453.0,0.0046865269185,4.031878949999979e-05,-0.0002068989369999998,0.013382343445
1454.0,-0.00715870460625,0.0006069036590000001,-0.004960270215650001,0.009760932173499999
1455.0,0.009851574273,0.0024212484630000003,0.004179359193,0.011136875915
1456.0,-0.008556068143,-0.0008976231779999999,-0.008018131002999999,0.012713383138999999
1457.0,0.00848391898355,0.0041485896505,0.0043830753505,0.013461634202999999
1458.0,-0.0043936855569999995,-0.00116712250215,-0.006911486558549999,0.0118555119755
1459.0,0.0048526359775,0.0034176739545000003,0.0026294376359999997,0.013184670271
1460.0,-0.00010079695999999985,0.00028010940600000007,-0.0017379512865,0.016022428215000002
1461.0,-0.0011416579800000003,0.00192256894825,-0.004404295567,0.012953835605
1462.0,-0.0014854284050000001,7.745445950000003e-05,0.0016477645935000001,0.014934684945
1463.0,0.026078501477500002,0.01412507558,-0.02619619408,0.062313614350000004
1464.0,-0.041894389500000004,0.0024605062210000003,0.0144468534285,0.04568503405
1465.0,0.000168702235,0.001401607916,-0.0015278693375,0.0025162497955
1466.0,0.0007055785489,9.761387300000006e-05,0.000620696916,0.0040122863635
1467.0,0.0002238752990255,0.00068223609615,0.00011034611649999985,0.0023862149535
1468.0,0.00062494100055,0.0001389936746,-0.002509313183,0.0027214693329999998
1469.0,0.000438201411,0.0015363575199999998,0.004768225563,0.006506560716
1470.0,-0.00016445815799999994,0.002307719298,-0.0026567950086,0.0048217646925
1471.0,-0.002989955458,-0.009669078642499999,-0.00951629177,0.01614881252
1472.0,0.0047650424945000006,0.0039045549614,0.0107184278245,0.015987812509999998
1473.0,0.0006047816125500001,0.0030567996963,0.0019045315620199999,0.00394483996735
1474.0,0.001263675265,-0.00086367058505,-0.003090752347,0.003484829229
1475.0,0.00010291897632350001,-0.000499740590805,0.0029315992945,0.002996009291
1476.0,0.00045623876105,0.00033103835682,-0.0029644909234999997,0.0030292666735
1477.0,0.00015469252649999999,-0.00060566013925,0.0041935556945,0.0042580939315
1478.0,0.00050610671865,0.00082122977005,-0.0019077146329999999,0.0022506603035
1479.0,-0.00032413323414999995,-3.306988949999985e-05,-0.0009624982645,0.0058892505854999996
1480.0,0.00014535979130000001,-0.00024403468705000002,0.001328397506,0.002856669544
1481.0,0.0009570403776999999,0.000303451828,-0.0040414266,0.0041766192255
1482.0,-0.00028223141965,0.0007724228327500001,0.0034727196754999997,0.00358250353
1483.0,0.0004445675369,4.562387610000001e-05,-0.0006832971209,0.0009008832824
1484.0,0.00069921242675,0.00100160323175,-0.0013167262847,0.002476179491
1485.0,0.00013050550605000003,0.0002217532583,0.0030907523525,0.00313489041
1486.0,0.001287017715,0.0005029236574999999,-0.00213477299335,0.002627247967
1487.0,-0.0005443034521,-0.00016021407468,0.0028615719445,0.0029197521419999997
1488.0,0.00020265489155,0.0006185748802,-0.0004923134539500001,0.0012558162887
1489.0,0.00037772325329999995,0.00058356120495,-0.00165519178395,0.00192553126405
1490.0,-0.00047958120929999994,0.00021114305547000002,0.0024371638005,0.0025103257745
1491.0,-0.000140054689435,0.00027162121585,-0.0004933744739,0.0012322487495
1492.0,0.0003989436608,-0.0004509336564,6.153918000000014e-05,0.0035001532090000002
1493.0,0.00024297366575,0.00018037346275,0.0013220313857000001,0.0021360045245000002
1494.0,0.00054324243175,0.00054748651345,-0.0012795905714999998,0.0017185844255
1495.0,0.00023448550274999999,0.000439262435015,0.0008413891560000001,0.0033572790655
1496.0,-0.00021220407485,0.0002960246854,0.0019607656512999998,0.002100545277
1497.0,0.0007108836509,0.00026631611395,-0.0023915399245,0.0025529121059999996
1498.0,0.00019841081005,-0.0004063708025,0.0038737853800000005,0.003912635229
1499.0,0.0004233471294,0.001341129754,-0.002442468902,0.002851075774
1500.0,-0.00011034611892,0.0003416485606,4.0318774500000066e-05,0.002816687521
1501.0,-0.0002907195826,0.0006610156933,0.0011236205768,0.0013569535043
1502.0,0.00095597935725,0.0003246722355,-0.0018345042272499999,0.0021302444267
1503.0,-0.00010716305785000001,0.0002811703992,0.0027193952184999997,0.0027777932034999996
1504.0,0.000216448156385,0.00070345650845,5.198999849999992e-05,0.0015218301525
1505.0,0.0005527916151,0.00018143448405,-0.0019098366740000002,0.002020137773
1506.0,7.639346696499999e-05,-0.00029708570485000003,0.001933179122,0.002048777494
1507.0,0.00037878427364999997,9.867489575000001e-05,0.000133688567202,0.00049167815385
1508.0,0.0007342260991,0.0006281240617,-0.002618598284,0.002791179818
1509.0,-0.00041379794605,0.00029390264372,0.003533197843,0.0035768977660000003
1510.0,0.00035968590695,0.00057825610225,-0.00045199467970000006,0.0011105056586500001
1511.0,0.0006440393673,0.00038621141629999997,-0.0012000140423999999,0.0020179938613
1512.0,5.305101849999996e-06,-0.00029920774655,0.00148755056487,0.0019432551775
1513.0,0.0005453644725,0.000122017342149,-0.0011342307802,0.0013181748298
1514.0,-0.00011777326159999999,0.00028753652055,0.00205201340145,0.00256820443845
1515.0,-5.41120391e-05,0.00030557386785,0.00118940383955,0.0015905802809
1516.0,0.0089277012745,-0.002939315015,-0.0063887729085,0.0115654957775
1517.0,-0.02635574617035,0.019129136311499997,0.025884653116000002,0.0459900227545
1518.0,-0.0014196452870000001,0.0023522821926,0.0018493585422,0.005755923931000001
1519.0,-0.0038960668125,0.00095491833815,0.0005432424125000001,0.006822149093500001
1520.0,-0.0031894272374,0.002232386866,0.0025432658236150003,0.00472836602
1521.0,0.0008742807886500001,0.00021432611565,-0.0024997640024,0.00267514990975
1522.0,0.0004074318238,0.00032997733645,0.0028403515375,0.003114477923
1523.0,0.0003533197847,0.00024085162405,0.00044775059824999995,0.0015907933415
1524.0,0.00038833345705,0.00030557386785,-0.00178888034695,0.0021541700551
1525.0,-7.639346699999999e-05,0.00014642081165,0.0019215078973999998,0.0027200351898500003
1526.0,0.00058568324675,0.00047533712774999997,-0.0015618219911499999,0.0017994058235
1527.0,0.000994176114,-0.0005156558680000001,0.005762401651,0.008447654552
