Time (s),Linear Acceleration x (m/s^2),Linear Acceleration y (m/s^2),Linear Acceleration z (m/s^2),Absolute Linear acceleration (m/s^2)
0.0,-0.001793202246,0.01332243788,0.188479051,0.1889578143
1.0,-0.34455485789999996,-0.014368717492,0.130568108745,0.5156720884
2.0,0.24224844424999997,-0.179323232525,0.5991402583000001,0.8242538084
3.0,0.3136435497,-0.06290392175,0.13646393829999992,1.0920455735
4.0,0.151189674535,-0.28466538783,0.03419692055000001,0.63880840505
5.0,-0.04383229635,-0.3611846125,0.12416707767,0.5151723854
6.0,-0.04807347905,-0.030383799655,0.18140886769999998,0.1907947421
7.0,-0.066000030885,-0.00910306746,0.17420319585,0.18654108684999998
8.0,-0.06355133126500001,-0.0085729169315,0.17759985545,0.18883529255
9.0,-0.06912923616,-0.01317829555775,0.1737375941,0.1878668718
10.0,-0.072184614775,-0.033215409385,0.17032481185,0.1883514477
11.0,-0.07435333932,-0.04111692383,0.167378212,0.18773371835
12.0,-0.07676226504,-0.043331392319999995,0.16706315865,0.18893364215
13.0,-0.069529931845,-0.046001956780000006,0.16870411875,0.18825827655
14.0,-0.05508190134,-0.041005553949999995,0.171503597,0.18489141115000002
15.0,-0.07734970508,-0.042841720964999996,0.1706135273,0.19257413985
16.0,-0.07056105710499999,-0.034323136715,0.17216892509999998,0.18920888125000002
17.0,-0.07154846878,-0.034469662235,0.17039406135000001,0.18801824490000002
18.0,-0.06500942744999999,-0.03491257675,0.17050171655,0.18582331415
19.0,-0.054990191305000005,-0.03315314414,0.17259795325,0.18417197865
20.0,-0.057934077454999997,-0.040732919075,0.17004770845,0.18425346415
21.0,-0.043511576245,-0.04359864832,0.17698461565,0.18740292
22.0,-0.04434751158,-0.035100398405,0.17217575995,0.18145459149999998
23.0,-0.046103169283000005,-0.046896643934999996,0.1813651976,0.1971681921
24.0,-0.038846546115,-0.034965546449999996,0.17714233015,0.18484442125
25.0,-0.024643577695000002,-0.035286010495,0.18455037205000002,0.18960224269999998
26.0,-0.047867076344999995,-0.037975746005000005,0.1779427223,0.1881775678
27.0,-0.061503556435,-0.037687872685,0.17173775015,0.18682543615000002
28.0,-0.078779141195,-0.032821835935,0.1687705357,0.1892022895
29.0,-0.076852563485,-0.036343220159999995,0.16960455340000002,0.18995100204999998
30.0,-0.076929831285,-0.038908760395,0.1698900696,0.1905194133
31.0,-0.07444900809,-0.039329830440000005,0.17270568495,0.1921439102
32.0,-0.068242384005,-0.04454691075,0.17429970735,0.19245706665
33.0,-0.059993318595,-0.052268663704999996,0.17405529205,0.19139584365
34.0,-0.06591515305000001,-0.052450971245000005,0.17162399490000002,0.19119341855
35.0,-0.06750165278,-0.047051306540000004,0.1705107086,0.18932945625
36.0,-0.07789285278,-0.042473028765000004,0.17100032435,0.19265114735
37.0,-0.06676943113,-0.045841662869999994,0.1752800269,0.19309759064999998
38.0,-0.060052257865,-0.04139470993,0.1765917125,0.1910632446
39.0,-0.056208951204999996,-0.038160100805,0.17944807075,0.19189932845000002
40.0,-0.044905101495,-0.040576062504999996,0.18158179335,0.191418958
41.0,-0.04390046923,-0.044250078155,0.18076462054999998,0.19122373804999998
42.0,-0.046053804574999996,-0.04800862822,0.18033030854999998,0.19229901815
43.0,-0.04225818498,-0.045652382295,0.18234830255,0.1927644558
44.0,-0.050411705050000005,-0.044045542515,0.1796215734,0.19172207465000002
45.0,-0.043695282555,-0.043403262095,0.181135093,0.1913333472
46.0,-0.051994039015,-0.03949718159,0.17935423044999999,0.1908984292
47.0,-0.05361077602,-0.04381295901,0.17801498999999998,0.19102050404999998
48.0,-0.052184325965,-0.049353040915,0.17914755999999998,0.19302624675000002
49.0,-0.04404421765,-0.050574558305,0.18027070935,0.1923543859
50.0,-0.04255160978,-0.050393031490000004,0.1825899001,0.19415931530000002
51.0,-0.04817845621,-0.0463465089,0.18327246535,0.19523450255000002
52.0,-0.057888503115,-0.044029980485,0.1778466113,0.19290979735
53.0,-0.055281469715,-0.042480435725,0.1802877913,0.1933107664
54.0,-0.051440184075,-0.04775255824,0.1805272859,0.19372146995
55.0,-0.049182983114999995,-0.04396898486,0.17985658345,0.19158756570000002
56.0,-0.055995705585,-0.041978530769999994,0.17820434845,0.19145548340000001
57.0,-0.053383889135,-0.05167245316,0.178263952,0.1931412402
58.0,-0.057327830600000004,-0.059231976285,0.1785391841,0.19702228054999998
59.0,-0.042820104885,-0.040841519415,0.18061831365,0.19183266724999998
60.0,-0.05625021589,-0.04333896272,0.17516769915,0.18929906894999998
61.0,-0.062361425910000004,-0.03945764555,0.17861494955,0.19326744015
62.0,-0.06406891346,-0.039954140075000005,0.17692598464999998,0.19244221525
63.0,-0.057251915395000005,-0.044514683285,0.1740602154,0.18862750779999998
64.0,-0.07779204745,-0.047151553284999995,0.17366893935,0.19607383525
65.0,-0.07318527796499999,-0.04892108709,0.17190311585,0.1931354666
66.0,-0.068411275755,-0.0428154456,0.1729475514,0.19085604235
67.0,-0.06638518023000001,-0.043660812905,0.17336481334999998,0.1907704946
68.0,-0.063275206805,-0.049130382594999994,0.1735967454,0.19123346305
69.0,-0.05710245044,-0.052364786425000004,0.17545826375,0.1918034937
70.0,-0.06437856922,-0.053103439855000004,0.1742771453,0.19324482225
71.0,-0.056020817705,-0.052039338335,0.17628201415,0.1921563999
72.0,-0.05606051375,-0.051585403525000004,0.17779293905,0.19342863135
73.0,-0.059090064165,-0.054136679310000005,0.1758722599,0.19327102954999997
74.0,-0.0424582845,-0.05332182672,0.1813693281,0.19375610255
75.0,-0.04027940406,-0.04999954583,0.1836741244,0.1945727858
76.0,-0.04863687083,-0.047422405455,0.17984498145,0.19227453514999998
77.0,-0.043147537355,-0.043826693779999995,0.18291752865,0.1930122625
78.0,-0.039981485430000005,-0.04197110146,0.18309713105,0.19205750665
79.0,-0.056227875545,-0.041518892295,0.1783406983,0.19168502655
80.0,-0.05889284232,-0.043655929115,0.1762152702,0.1910705423
81.0,-0.06857519763,-0.045604343655,0.17302269695,0.1916615351
82.0,-0.069649746495,-0.052148356140000005,0.1701408254,0.1911032216
83.0,-0.06361159635,-0.048281122765000004,0.17411411375000002,0.1916650563
84.0,-0.0544637852,-0.04185085764,0.1797110537,0.1923933537
85.0,-0.047767771395,-0.03791265104,0.1827751775,0.19272010325
86.0,-0.04219523937,-0.03646721763,0.18169164655,0.19026310625
87.0,-0.050369800085,-0.0354384165,0.18187236785,0.1920871588
88.0,-0.05350348588000001,-0.038163337554999996,0.1802290416,0.1926807639
89.0,-0.043072308105,-0.03422735874,0.18355696245,0.19173609525000002
90.0,-0.07024041681500001,-0.03461821404,0.17785725089999999,0.1947507831
91.0,-0.0935000206,-0.03927847774,0.16594989319999998,0.19466394705
92.0,-0.11040586745,-0.039200726955,0.1626872438,0.20048311055
93.0,-0.09277325963,-0.04239955781,0.16722556519999998,0.19588007759999998
94.0,-0.10137281448,-0.03993894968,0.1663357134,0.19896275595000001
95.0,-0.10592457920000001,-0.041391002255,0.16379552405,0.19942018635
96.0,-0.082434999905,-0.040598029255,0.1720181824,0.19503618755000002
97.0,-0.07073422402,-0.043371273754999995,0.1757420991,0.19437376975
98.0,-0.0662463615,-0.043051638914999996,0.17684394315000002,0.19369324475
99.0,-0.0567488094,-0.048334267045000004,0.18050787725,0.1953353522
100.0,-0.051558065060000005,-0.047704598949999996,0.18079062585,0.19397166045
101.0,-0.052747652830000005,-0.046509700035000004,0.18026987475,0.19350917080000002
102.0,-0.04898069577,-0.052756965190000005,0.18147944955,0.19524347605
103.0,-0.04957432817,-0.05274636106,0.18162387414999998,0.1955216419
104.0,-0.053293192010000004,-0.04974477455,0.17995722185000002,0.19416862455
105.0,-0.050246365365000004,-0.05520114489,0.1807711348,0.1955960151
106.0,-0.050148063235,-0.05710729531,0.1803625122,0.195766094
107.0,-0.053701385585,-0.052358137420000006,0.17940848835,0.19446575919999998
108.0,-0.0519603693,-0.05140613781,0.180314539,0.19456948385
109.0,-0.050788170665,-0.05620437598,0.18005472825000002,0.19534191485000002
110.0,-0.050066135975,-0.051023798555,0.18071125985,0.19434260279999999
111.0,-0.05258499564,-0.050092431385,0.1793188644,0.19353301665
112.0,-0.05615704112,-0.049331912330000005,0.1781669254,0.19321167655
113.0,-0.060993297025,-0.047978404909999994,0.17664965989999998,0.1929445135
114.0,-0.05902662142,-0.05055313749,0.17733406345000002,0.19368603875
115.0,-0.05413055402,-0.05193925757,0.17880723650000002,0.19396176675
116.0,-0.0618444954,-0.049875491775,0.17735779915,0.1944025545
117.0,-0.06904535221,-0.045936052245,0.17653200945,0.19504558935
118.0,-0.07296218276,-0.039690544854999996,0.17656250565,0.19514703095000002
119.0,-0.064382823585,-0.04977287013,0.17853513215,0.19625472225
120.0,-0.05396607989,-0.05427216217,0.1783034748,0.1940409635
121.0,-0.049312116894999994,-0.05427935373,0.18185284805000002,0.196130494
122.0,-0.05526395936,-0.048857585895,0.1814131168,0.19593774930000002
123.0,-0.05103191932,-0.05533287108,0.1808708687,0.1959584652
124.0,-0.07143836579,-0.047459171849999995,0.17792136520000001,0.19910328215
125.0,-0.08863798473500001,-0.06014765084,0.15240275749999999,0.19548726015
126.0,-0.03836719537,-0.04883528552,0.18724849100000002,0.19837023809999998
127.0,-0.071821820055,-0.04262269893,0.1728105328,0.19211495965
128.0,-0.06513572706500001,-0.047203548555,0.17543620734999998,0.19301443975
129.0,-0.054731221395,-0.049007901095,0.17988148175000002,0.194318047
130.0,-0.06366060330500001,-0.037233809325,0.17815958905,0.19285280935
131.0,-0.059278631835,-0.047827609465000004,0.17917670354999998,0.1947535655
132.0,-0.060199904065,-0.04331696412,0.17893545215,0.19370303125
133.0,-0.064200670485,-0.043638921555,0.17916339445,0.19526624705
134.0,-0.052302203490000004,-0.051039563484999995,0.18848952515,0.20238730970000002
135.0,-0.071471211635,-0.048916553329999994,0.19189019785,0.21568682584999999
136.0,-0.09113749561,-0.080331310175,0.2175071719,0.2540348181
137.0,0.035297712805,-0.09170217899199999,0.183659131025,0.218180949245
138.0,-0.091165415595,-0.10181024253500001,0.149985824415,0.240726626
139.0,-0.050288609705,-0.05339884114,0.20202175379999998,0.21521092954999999
140.0,-0.16232883580000002,-0.083035134315,0.09184057888,0.21807128195
141.0,0.2236426137085,-0.27088482785,0.49758645760000003,0.90938120045
142.0,0.0102648682245,-0.19048018225000002,0.13909958639,0.2381252895
143.0,-0.116282701305,-0.032059170835,0.26361806425,0.31424820685
144.0,-0.17607026865,-0.5367565572,0.22149134402499998,0.701808086
145.0,0.07033309509999999,0.019879401199999994,0.12634010441,0.33726108265
146.0,0.05020380206,0.05442550965,0.1332067698,0.1524027604
147.0,0.067787216375,-0.00432583796,0.1964110621,0.2098205274
148.0,-0.100630547145,-0.03762929638499999,0.26429523494999996,0.35128298735
149.0,-0.29138101815,-0.4186830737,-0.28877145902,0.6087572162
150.0,0.001378978599999997,-0.1181130444,0.30741768199999997,0.8799864674
151.0,-0.112580838575,-0.34150534034999996,0.18429786607999998,1.11711614795
152.0,-0.094283946655,0.024519548555,0.23334615835,0.2628199285
153.0,-0.050798073320000005,-0.036144575750000005,0.1500770405,0.16950051135
154.0,-0.09711303163000001,-0.043963597315,0.14012054445,0.17792296805
155.0,-0.07754400041500001,-0.05785190113,0.1647017721,0.19155491945
156.0,-0.078894455005,-0.05802823999,0.1616235102,0.18898541800000002
157.0,-0.07743869178,-0.05513738495,0.16427176305000002,0.1898232682
158.0,-0.068206094925,-0.058528484835000005,0.16640825425,0.18936233535000002
159.0,-0.070134432085,-0.059796896615,0.1659924782,0.18988583795
160.0,-0.07665342737,-0.052500365955,0.16561271454999998,0.1898966144
161.0,-0.07707437240500001,-0.052304134655,0.16693113925,0.19117194734999998
162.0,-0.076697010275,-0.055428189705000006,0.16342283959999998,0.18886672259999998
163.0,-0.081321018585,-0.056151001330000005,0.16269484125,0.19038721190000002
164.0,-0.071763943885,-0.065949629995,0.16679444165,0.1934958098
165.0,-0.07076787445999999,-0.06302407718,0.16433732755,0.1901704197
166.0,-0.062850386765,0.004789063353500001,0.1756610556,0.18673872149999998
167.0,-0.08552953703999999,-0.033373285455,0.1631570822,0.189529618
168.0,-0.070284952095,-0.07854007785,0.16570373794999999,0.196931058
169.0,-0.070377620985,-0.071487438025,0.1651675246,0.19324836095
170.0,-0.06887688657999999,-0.072311124245,0.16619665355,0.19390315585
171.0,-0.07223672396,-0.06477114576500001,0.1671566444,0.19334720045
172.0,-0.07633264996,-0.055446755444999996,0.16689066465,0.1917765797
173.0,-0.07868881561999999,-0.057341099854999994,0.16618154845,0.19269053455000001
174.0,-0.082629909735,-0.049257113425,0.1663013634,0.19213535055
175.0,-0.084364974155,-0.04140511965,0.16648900005,0.19118758525000001
176.0,-0.07982194234500001,-0.050446690074999995,0.1668685353,0.1917697439
177.0,-0.08065754776,-0.051797482755,0.1661070583,0.1917815892
178.0,-0.08123735894,-0.05342257411,0.16665767450000002,0.19294804015
179.0,-0.076097738175,-0.055936907965000005,0.16822192785,0.19292634609999998
180.0,-0.07235218512,-0.05688622822,0.1694149002,0.19280213785
181.0,-0.06947552491,-0.05879970258,0.16951033275,0.19240246454999999
182.0,-0.072641950125,-0.057175044375,0.16822316425,0.19195453759999997
183.0,-0.07635333721500001,-0.05884620806,0.1653199255,0.19137685854999997
184.0,-0.0810886696,-0.062292026355,0.16461008789999998,0.1938125614
185.0,-0.07606997897000001,-0.05932089695,0.16731697725,0.19317635335
186.0,-0.07315414677000001,-0.058889863585,0.1679585395,0.19244116690000002
187.0,-0.07545893383999999,-0.05777547653,0.16786691865,0.19290989339999998
188.0,-0.077641447195,-0.053474566015,0.16790132735000002,0.19255913045
189.0,-0.076042227285,-0.05578321239,0.1688150006,0.19339924009999998
190.0,-0.072126051905,-0.058580092315,0.17014066815,0.19386201275
191.0,-0.07355060206,-0.058465096035,0.1702425711,0.1944517199
192.0,-0.074620788905,-0.0610708021,0.1682396452,0.1939219212
193.0,-0.07673290926000001,-0.054375596915000005,0.16940650395,0.19376481645
194.0,-0.072561446045,-0.058939754994999996,0.1694881204,0.1935803984
195.0,-0.07292163698,-0.052729772055,0.1660036836,0.1888268832
196.0,-0.07353791114,-0.051855325699999996,0.1565903848,0.1806069292
197.0,-0.07111219884,-0.0544959135,0.1504708927,0.1751378812
198.0,-0.06738073107,-0.054604937160000006,0.1496625476,0.1729763468
199.0,-0.065701283515,-0.05481062643,0.1516842544,0.17416188685
200.0,-0.06398828425,-0.05362242271,0.15211737339999998,0.17357407565
201.0,-0.06518854892,-0.052963609985,0.15415779135000002,0.1756334999
202.0,-0.064555332005,-0.05602084801,0.15632222099999998,0.17818742375
203.0,-0.063257224975,-0.05088471456,0.1635757007,0.1826189992
204.0,-0.066739432885,-0.05228624607,0.1660090217,0.1864073871
205.0,-0.063944056155,-0.061128680229999996,0.1680161704,0.18989073755000002
206.0,-0.07221777202499999,-0.051532098895,0.1686354428,0.19055808694999998
207.0,-0.069139139995,-0.055421465919999996,0.17135508095000002,0.19292257645
208.0,-0.06820657809,-0.05327590243,0.17411018774999998,0.19443757955000002
209.0,-0.07018309832,-0.05720116943,0.1725542322,0.19486930365
210.0,-0.06833097390500001,-0.06027233152,0.17215542379999998,0.194784407
211.0,-0.07097869032000001,-0.05089055492,0.1766527506,0.1971188598
212.0,-0.071855629405,-0.047733809195000004,0.17622948825,0.196265177
213.0,-0.07043112093000001,-0.05207092297,0.17511367395,0.19580159865000002
214.0,-0.07104880518000001,-0.05397456097,0.17484612765000002,0.1963216777
215.0,-0.07359057168,-0.056283286759999995,0.1716515965,0.19512035485
216.0,-0.07815222645,-0.056962686525,0.17130832985,0.19678518565
217.0,-0.07763200568,-0.047903527525,0.17205704815,0.19494558295
218.0,-0.09604437819,-0.056280591729999996,0.1616471376,0.1965929755
219.0,-0.10937182179999999,-0.064711490025,0.15402952534999997,0.1998713389
220.0,-0.09772901982,-0.0505224131,0.1631725281,0.1967962131
221.0,-0.090007229695,-0.060250780885,0.1651144646,0.19749163344999998
222.0,-0.08686196676,-0.058670501415,0.16554064740000002,0.19593637195000002
223.0,-0.08511756437,-0.058279880725,0.1683094435,0.19741930305
224.0,-0.07807305515,-0.061290837525,0.1695413681,0.1964690109
225.0,-0.0801761718,-0.054743146140000004,0.17027562005,0.19604358700000002
226.0,-0.069860531565,-0.062074603895,0.17628310805,0.201337777
227.0,-0.11913384381,-0.06792219423,0.14883403325,0.2096298772
228.0,-0.026886968664999997,-0.045544034945000006,0.19929124669999998,0.24195848365
229.0,-0.075486572965,-0.06602262126,0.17047188775,0.1977889444
230.0,-0.07513912522499999,-0.070243425365,0.16819241535,0.19717230295
231.0,-0.077880265775,-0.072697618375,0.16621405835,0.1974296066
232.0,-0.076818337205,-0.06320865818499999,0.1676343308,0.19493243435000002
233.0,-0.0786744863,-0.05387441396,0.16897495540000002,0.19424788469999998
234.0,-0.08656332837,-0.055158075245,0.1662688825,0.19541828509999998
235.0,-0.08606753221499999,-0.051887206719999995,0.16858339519999999,0.19626719334999998
236.0,-0.08412310079999999,-0.054714829905,0.16979433594999999,0.1975417656
237.0,-0.07468328057,-0.044010796275,0.17347451925000001,0.1940454371
238.0,-0.08852085949499999,-0.062822414655,0.1721633709,0.2124619448
239.0,-0.059852583274999996,-0.023545379175,0.17433711200000002,0.189031948
240.0,-0.073436531955,-0.060913749155,0.17987262185000003,0.20728153105
241.0,-0.09114593584,-0.044334744145,0.16989556485,0.19795005535
242.0,-0.07436312056,-0.04486812657,0.17314775240000002,0.19371529115
243.0,-0.08024258652999999,-0.051040946595,0.17590799785,0.20016032560000002
244.0,-0.07925369847,-0.04625923492,0.1736357553,0.19647345859999998
245.0,-0.081027604285,-0.046924186130000003,0.17179327160000002,0.19567488495000002
246.0,-0.09258540041499999,-0.051739835819999996,0.16646308235,0.1974072721
247.0,-0.086791809525,-0.05848445239,0.1641715419,0.19471090870000002
248.0,-0.094034110285,-0.053517589145,0.1646390774,0.197010948
249.0,-0.093355373305,-0.04571421996,0.16501179645,0.1950448042
250.0,-0.09074957333,-0.041979917185,0.1681048513,0.19563262425
251.0,-0.079623206815,-0.04407099379,0.17056572209999998,0.19333755725000001
252.0,-0.07489490508999999,-0.05044404098,0.1683268396,0.19106444775
253.0,-0.07233826138499999,-0.05234283929,0.1672968397,0.18963856810000002
254.0,-0.066840862765,-0.054518011209999995,0.17022899419999998,0.19084147964999998
255.0,-0.07104959102,-0.05575146167,0.17016722890000002,0.19264819375
256.0,-0.069831971055,-0.053813791900000005,0.17343775335,0.1945604488
257.0,-0.07297776497,-0.056305768490000005,0.17125610600000002,0.1944874929
258.0,-0.07041720391,-0.06345930551000001,0.1733462991,0.19757676195
259.0,-0.07542364749,-0.057839828825,0.17241117690000002,0.1968774298
260.0,-0.073296621445,-0.06434640102,0.17088831965,0.19677173180000002
261.0,-0.0767952059,-0.056842158625,0.1734337648,0.1980228273
262.0,-0.07611740464,-0.056003783925,0.17528174175,0.1991370936
263.0,-0.07395703638000001,-0.05353385853,0.17366155914999998,0.1962768461
264.0,-0.07757804088,-0.05812969315,0.17388809155,0.1991015753
265.0,-0.07646425981499999,-0.057450863734999996,0.1745539424,0.1992205484
266.0,-0.07871190111500001,-0.0520603287,0.174918796,0.19886101895000002
267.0,-0.1098547384,-0.053646212410000005,0.15184538809999998,0.1951097303
268.0,-0.063205086825,-0.037482747979999995,0.1657434352,0.1819328741
269.0,-0.10961231536,-0.06005591512,0.17456523145000002,0.21859828604999998
270.0,-0.07581935995,-0.047794719185,0.1770821199,0.19849491955
271.0,-0.076685952525,-0.046501100520000005,0.1738229238,0.19562346195
272.0,-0.07795983457,-0.050467208629999996,0.17659353849999998,0.19955325815000002
273.0,-0.06965295468999999,-0.051939283115,0.17735108584999998,0.19749730264999998
274.0,-0.0679034765,-0.06155676474,0.17672648165,0.19919725905
275.0,-0.07104753034,-0.050023350255,0.18077956905,0.20176567499999998
276.0,-0.07399780611000001,-0.054728507465,0.17730127715,0.1997826801
277.0,-0.073037660125,-0.059877952245,0.1763671337,0.2001252641
278.0,-0.071123938195,-0.058811754545,0.1790506351,0.2014450136
279.0,-0.06785584755999999,-0.060081018575000006,0.1812509382,0.2026499625
280.0,-0.070115380195,-0.06059817838500001,0.17979287335,0.20235502885
281.0,-0.071275519185,-0.05710843454,0.1800381207,0.20188500534999998
282.0,-0.071377054335,-0.05437282785,0.1805834693,0.2016497276
283.0,-0.0645679041,-0.05940718121500001,0.181164133,0.2013525696
284.0,-0.068441955655,-0.0554185486,0.18285081105,0.2030214326
285.0,-0.06904310427999999,-0.04622863637999999,0.18352326025,0.20148101950000002
286.0,-0.0706604179,-0.04921047948,0.18340373785,0.2027027017
287.0,-0.07543939250000001,-0.05496418206,0.17806726335,0.2010848026
288.0,-0.075203970795,-0.06044522252,0.17806728425,0.20253710725000001
289.0,-0.07232998237,-0.062263248945,0.17851045064999999,0.2024458245
290.0,-0.07825513746,-0.05419825726,0.1804278483,0.2039988384
291.0,-0.07369219859000001,-0.056948520360000005,0.1797796339,0.2024817199
292.0,-0.06906962413,-0.059426958295,0.1804561105,0.20215813165000002
293.0,-0.068383248225,-0.056570603479999995,0.1804289873,0.201081352
294.0,-0.06938750025000001,-0.05827889367,0.17884707075,0.2004976951
295.0,-0.06976533882,-0.05753387156,0.18026911265,0.20170150334999998
296.0,-0.07435993401,-0.055875073795,0.1786916542,0.20146847845
297.0,-0.07771583709499999,-0.05552134795,0.1764999094,0.20069941905
298.0,-0.086510291175,-0.05210859624,0.17315093295,0.20085758175
299.0,-0.09301942293,-0.055682618205,0.1681691865,0.20011757000000002
300.0,-0.08216404328499999,-0.058536832450000006,0.17341215885,0.20064158415
301.0,-0.08186041519000001,-0.060738077825,0.17187384384999999,0.1998565327
302.0,-0.08520519385,-0.060041544055,0.17042128645,0.199772895
303.0,-0.084781529675,-0.05763604033,0.17299718715,0.2010948328
304.0,-0.080403471445,-0.061664763775,0.17204381135000002,0.19967367279999998
305.0,-0.084106013725,-0.05736695949,0.17148535745,0.1994928625
306.0,-0.09014944916,-0.051218528045,0.1702316397,0.1993760379
307.0,-0.08236157025999999,-0.049201301105,0.17276277350000002,0.19775143010000001
308.0,-0.07297159974,-0.055533694545,0.1774106305,0.19974505110000002
309.0,-0.0874560568,-0.055242024245,0.17150598585,0.200890147
310.0,-0.08045954682,-0.05418426463500001,0.17340213254999998,0.19869144625000001
311.0,-0.07645589539,-0.063145969035,0.17367116729999998,0.2000124046
312.0,-0.072395506155,-0.07093983297,0.17074174775,0.19856140249999998
313.0,-0.080051637085,-0.060798021495,0.1717072754,0.19915796414999998
314.0,-0.07362236984000001,-0.067952458655,0.17030194999999998,0.19773931109999998
315.0,-0.06939950499,-0.056998699565,0.1681182975,0.19320615615
316.0,-0.10452229602999999,-0.049692501565,0.16485109335,0.2026777674
317.0,-0.08183648552,-0.06479011229500001,0.15839354384999998,0.1967542292
318.0,-0.158627560605,-0.06356581378000001,0.1616252099,0.2480904615
319.0,-0.10399870345999998,-0.21916625073,0.40779342635,0.5417546953
320.0,-0.09593249065000001,-0.12615878884999998,-0.5699282262350001,1.2132033956
321.0,0.210690456,-0.6942863317,-1.3772375189000001,2.02748965535
322.0,1.1516492597999999,-0.65868951725,-1.6624447125000001,2.603326225
323.0,1.5450798410000002,-0.67673992835,-2.480266431,3.0074321514999998
324.0,0.38831508245,-1.0894315905999998,-1.710090526,2.1278254995
325.0,-0.15106289779999998,-0.336655176935,-1.3173467364,1.3772734486
326.0,0.31161521305,-0.13240977265,-0.006565052249999995,0.3970324763
327.0,-0.2954133,0.01553846885,-0.05822164899999999,0.36306971585000003
328.0,-0.03125186316499999,-0.007298615625000001,-0.11493722049999999,0.16216913994999999
329.0,0.1983817344,-0.194349092155,-0.06341869751000001,0.6433171858
330.0,-0.20545785275,-0.38449524255,-0.67619834915,1.1806475082499999
331.0,-0.22404022184999994,-1.0585468724,-2.7270226135,3.122202442
332.0,-0.271033308905,-0.84521648605,-1.7052258485,2.008711538
333.0,2.0642559985,-0.4038834694,-0.6811282285,2.345592581
334.0,2.0215703995,-0.027967548279999997,1.2654698169,2.7069013305
335.0,-0.006692240829000001,0.13139490726,-0.129129236275,0.261284868545
336.0,0.5244904088,0.03899299233,0.553009643,0.76321567215
337.0,-0.16563683583,0.02115669953,0.084060487165,0.23914004765000002
338.0,-0.08370564085,-0.1284650308095,0.231623821,0.29832158695
339.0,0.08519243079999998,-0.44096767695,0.1362832261,0.51107172315
340.0,0.050997626909999996,-0.093011702325,0.17704027984999998,0.22443505985
341.0,0.017691387069500002,-0.11183682607,0.21152334745,0.28378139599999996
342.0,-0.16887184305000003,0.155635336525,0.43186111595,0.5277381129500001
343.0,0.10007302614999997,-0.054951740049999996,-0.09285077950000001,0.883584828
344.0,-0.0226936359222285,-0.025109992289999997,0.19616727365,0.2084778953
345.0,-0.10886013698,-0.033368190129999996,0.18801140025000002,0.2244477547
346.0,-0.0669846232,-0.057706963449999996,0.15067536110000002,0.1770131435
347.0,-0.07449017729,-0.05753419116,0.1639336541,0.19232712159999998
348.0,-0.06207058502,-0.04905575283,0.17274699905,0.19019495435
349.0,-0.097561531385,-0.05955988657,0.1580867142,0.19517134515
350.0,-0.079745421125,-0.055134382755,0.16577033915,0.19312353535
351.0,-0.07170952716,-0.046718898415,0.17022922065,0.19077694769999998
352.0,-0.073361555115,-0.02148583047,0.1692715958,0.1891799505
353.0,-0.08596351061,-0.06762692028,0.18398872235000002,0.21721437475
354.0,-0.09234999547,-0.058491653010000005,0.16403296805,0.19760263495
355.0,-0.077916045505,-0.05755325875,0.1682052054,0.1941664219
356.0,-0.07967133007,-0.05899269255,0.1676723531,0.1948074478
357.0,-0.074082594705,-0.06880753522,0.16751355355,0.19566331895
358.0,-0.06970788815500001,-0.073155684985,0.1685005681,0.19647930315
359.0,-0.06737156898499999,-0.07111986857,0.16691546969999999,0.1935654804
360.0,-0.07567298641,-0.07214101018,0.16418023345,0.1946753793
361.0,-0.082902874265,-0.067646039855,0.1627455439,0.1948224676
362.0,-0.079675785895,-0.05842680029,0.16703873614999998,0.19415518469999998
363.0,-0.07837044927,-0.049323899335,0.17169997315,0.1950927766
364.0,-0.070586458885,-0.050381776595,0.17430618855000002,0.19472580955000002
365.0,-0.07575120245,-0.05635305435,0.1696110831,0.194118085
366.0,-0.06620069173500001,-0.063714905095,0.1725793707,0.19552702054999999
367.0,-0.074176731415,-0.069833384975,0.1649281799,0.19385616295
368.0,-0.07401127481,-0.07010706176,0.16629488069999998,0.19505950724999999
369.0,-0.07674281707,-0.068548565585,0.1651067672,0.19455026679999998
370.0,-0.07486071603,-0.07018994611,0.16531280004999999,0.19458099745000002
371.0,-0.07588503096,-0.06758864153,0.16518152325000002,0.19396145580000002
372.0,-0.076961593875,-0.06098759715,0.1659078547,0.19280603154999998
373.0,-0.07170345306,-0.06464046361,0.16839561875,0.19411291549999998
374.0,-0.07287534112499999,-0.061273393999999995,0.16870235935,0.19371670154999998
375.0,-0.07704101770499999,-0.066157680815,0.16463999525,0.19345330755
376.0,-0.06873181233,-0.07229883467,0.16699784925,0.19452432930000002
377.0,-0.068258793845,-0.06721630686499999,0.16844682405,0.1937848611
378.0,-0.06262882226,-0.068583486895,0.17188577025000001,0.19537471405
379.0,-0.07292363258000001,-0.06346248877499999,0.16983203684999998,0.195431151
380.0,-0.077084363395,-0.064332737505,0.16493485775,0.1931476042
381.0,-0.070691189295,-0.06767620756500001,0.16776146609999998,0.19423965365
382.0,-0.07273281756,-0.06581083555,0.16773822575,0.19434148685000002
383.0,-0.06748016632,-0.06632973991499999,0.16889895295,0.19360969379999998
384.0,-0.068965665275,-0.06579213156,0.1697759714,0.1948531675
385.0,-0.079878461385,-0.06077461341,0.16460847585,0.19289856145
386.0,-0.08294020002,-0.05730956509,0.16379681845,0.1923469873
387.0,-0.08665611823,-0.058652169265,0.16190610705,0.19280454414999998
388.0,-0.081945829295,-0.06546190345,0.16305622949999998,0.19391523125
389.0,-0.08322417177,-0.058632643894999996,0.1644007042,0.19346574535
390.0,-0.09415609506,-0.061932067055,0.16557082395,0.20102999315
391.0,-0.056467754105000004,-0.051599503935,0.16931113985000001,0.18690483365
392.0,-0.07875128455,-0.06750127109500001,0.1655735584,0.19589328044999998
393.0,-0.080826674285,-0.05562119009,0.16397058855,0.19122300305
394.0,-0.071768056655,-0.053001025915,0.16757033170000002,0.18988348384999998
395.0,-0.08788562509,-0.05671455525000001,0.16177829105000002,0.1926513597
396.0,-0.090740386415,-0.058106359095000004,0.15781877935,0.1918071832
397.0,-0.09210123419999999,-0.056080341554999996,0.1598209837,0.19284620060000002
398.0,-0.08296942733000001,-0.053026883675,0.1688315253,0.19578443639999998
399.0,-0.057589801190000005,-0.061128254315000005,0.1667921915,0.19052629285
400.0,-0.06966704772,-0.055459062870000006,0.16970770905,0.1919721129
401.0,-0.066063625535,-0.054471642195,0.1749730072,0.19504651875
402.0,-0.05992798371,-0.05610993234,0.17699542940000002,0.19513783195
403.0,-0.08744444352,-0.05890999141,0.1677811243,0.1986948073
404.0,-0.06747751065499999,-0.05412687934,0.17088515265,0.19162939185
405.0,-0.06896093677,-0.05463873317,0.17057983495,0.19258971484999998
406.0,-0.07491405933,-0.053770224894999996,0.1715593953,0.1948211634
407.0,-0.08166017254,-0.051496578005,0.1702248945,0.1957161228
408.0,-0.07866335299499999,-0.061017013365,0.16751263989999998,0.1949366086
409.0,-0.086902566085,-0.058358503455,0.16651416255,0.19676598839999998
410.0,-0.0829669317,-0.055262809915,0.16759881640000002,0.19510458060000002
411.0,-0.067876372395,-0.06049975611,0.1740505384,0.19637795975
412.0,-0.068542045445,-0.053272671960000004,0.17520209744999998,0.19556989595000002
413.0,-0.07499264263,-0.042618139284999995,0.17574440175,0.19578350795
414.0,-0.087483224415,-0.033449831464999996,0.1758321202,0.19923344399999998
415.0,-0.08227340901499999,-0.02871902849,0.17637605355,0.19673848989999998
416.0,-0.08475424013,-0.030303616675,0.17653119945,0.19824926804999998
417.0,-0.071966447525,-0.022922985135,0.17839561945,0.1945613955
418.0,-0.1172313824,-0.052347291379999994,0.16230649815,0.2076213412
419.0,-0.06005140884,-0.055466885055000005,0.17287151775,0.1918749991
420.0,-0.089961869935,-0.04092646739,0.16503254325,0.19240334674999998
421.0,-0.077979590625,-0.04038821214,0.17721424845,0.19786365025
422.0,-0.092933327025,-0.03644589669,0.16840737405,0.19617751989999999
423.0,-0.092749510515,-0.054161499414999995,0.15980379919999999,0.1931513291
424.0,-0.11114628561,-0.050788174425,0.1552963871,0.19924231725000002
425.0,-0.095952085585,-0.056052475569999996,0.1609675653,0.19568683850000002
426.0,-0.096809340585,-0.052568498995,0.15959216175,0.19432942625
427.0,-0.10606753715,-0.05426816522,0.1566992128,0.19686403905
428.0,-0.099489401085,-0.06253499532,0.158222387,0.19724078785
429.0,-0.09269247550500001,-0.064687489105,0.1597109705,0.1956750244
430.0,-0.08479108045,-0.06647642036500001,0.1616495412,0.19429031455
431.0,-0.080935976155,-0.06313154335,0.16482734194999998,0.1943101996
432.0,-0.07573331348500001,-0.05831394309,0.16678913815000002,0.1922732749
433.0,-0.08080510795000001,-0.062941923915,0.1663261354,0.19544498805
434.0,-0.078272990465,-0.053223404599999996,0.1682598959,0.1940401275
435.0,-0.09312767968,-0.048048497235,0.164655145,0.1951785006
436.0,-0.09180136522,-0.047837574895,0.16438767380000002,0.19427967805000002
437.0,-0.09425732802,-0.048568628180000004,0.1645040022,0.1957592374
438.0,-0.09201471768,-0.04861395321,0.164630678,0.194764691
439.0,-0.08336720123,-0.052130354340000004,0.16779953209999998,0.19450467370000002
440.0,-0.08451482321,-0.056704703745,0.16585140275,0.19460475570000002
441.0,-0.0774589926,-0.05730558932,0.17039027065,0.19577379309999998
442.0,-0.07065526323999999,-0.057411517765,0.1728955959,0.19540546755
443.0,-0.07186056697000001,-0.055912371665,0.1735971693,0.19604716649999998
444.0,-0.069467182105,-0.060076611720000006,0.17314735155,0.19600823875
445.0,-0.064843702825,-0.060196320805,0.17285190179999999,0.19418494344999998
446.0,-0.06921631980500001,-0.05846491396,0.17130410670000001,0.1937921435
447.0,-0.06737541352500001,-0.058066801855,0.17361852465,0.19510148584999998
448.0,-0.07422304190000001,-0.055376719745,0.17257509785,0.19610399155000002
449.0,-0.07220755312999999,-0.057060227775,0.17152020725,0.19522868365
450.0,-0.077611979895,-0.052390363785,0.1718133437,0.19568595525
451.0,-0.076291569285,-0.05232390326,0.17126602745,0.1947302853
452.0,-0.08721964125500001,-0.044390168810000005,0.17185176345,0.1977658836
453.0,-0.07794529456999999,-0.042970935645,0.1751204777,0.19647775885000002
454.0,-0.0823665225,-0.054929246515,0.16827253585,0.19551617785
455.0,-0.08993468954,-0.08272105213,0.16146167844999998,0.20249345205000002
456.0,-0.06025780728999999,-0.06252864445,0.16243172960000002,0.18457573995
457.0,-0.080052764885,-0.056345351190000004,0.1715304418,0.19756385605
458.0,-0.07296143638,-0.05508344533,0.1707592109,0.19370845975
459.0,-0.07634277269,-0.060596238824999996,0.16853529215000002,0.194691528
460.0,-0.07881655169,-0.06343472609,0.16669716725,0.1950043991
461.0,-0.07805434606,-0.061713893295,0.16754639895,0.19486765145
462.0,-0.07218649738999999,-0.06211162004,0.16917048125,0.19416895335
463.0,-0.07146792412,-0.061948987154999996,0.16912726620000001,0.1937954206
464.0,-0.06903835326999999,-0.06407991099,0.17133711255,0.19554685785
465.0,-0.07345644806500001,-0.06356528445500001,0.1704757774,0.1962193858
466.0,-0.077079024165,-0.066476745535,0.16813980045,0.19655051545000002
467.0,-0.06615664497500001,-0.066820104275,0.17041772415,0.19466482740000002
468.0,-0.073534657645,-0.06081434652499999,0.173912879,0.1989265742
469.0,-0.073135095755,-0.057777910264999996,0.1738145047,0.19729677915
470.0,-0.073479304205,-0.055976682890000004,0.17273849315,0.19618930704999998
471.0,-0.07971486442,-0.05583217875,0.17197798549999999,0.1976496536
472.0,-0.076603805645,-0.06011331081,0.1716827303,0.19741212875
473.0,-0.08082553323,-0.06530563258,0.16736686765,0.19700226035
474.0,-0.07899055769499999,-0.06602056367,0.1694287844,0.19827243215
475.0,-0.07565325593,-0.068291607355,0.1687477278,0.19715176365
476.0,-0.08085741535,-0.071928433835,0.1655877021,0.19782372790000002
477.0,-0.081054960405,-0.069893360505,0.16519165414999998,0.19684316964999998
478.0,-0.072729869305,-0.074666463765,0.1678412774,0.19760142175
479.0,-0.07003842729000001,-0.073104976675,0.16999013355,0.197855181
480.0,-0.077005753955,-0.06605787671499999,0.1688978465,0.1972363932
481.0,-0.093598858505,-0.058141242795000006,0.16342026329999998,0.1971092566
482.0,-0.087898382555,-0.052784194379999996,0.16935376885,0.19800044495000002
483.0,-0.09088167365,-0.05237307453,0.16791323075,0.19799314610000002
484.0,-0.08236257527999999,-0.057739191615000005,0.17105803754999999,0.19846526085
485.0,-0.07799709232999999,-0.059981696795,0.17035848145,0.19673280275
486.0,-0.076467056125,-0.0625001457,0.16974529384999998,0.19638636990000002
487.0,-0.07616030864000001,-0.06349517825,0.169722578,0.19657172005
488.0,-0.08126689157,-0.062029862185,0.16981254569999998,0.1988282883
489.0,-0.08021740853,-0.061316039295,0.1684140723,0.19653890635
490.0,-0.0900899269,-0.06724874249,0.16179595019999998,0.1970469663
491.0,-0.08849866617499999,-0.07060102303999999,0.16173994965,0.19747254190000002
492.0,-0.07946874427,-0.063560969395,0.1672961718,0.1959001224
493.0,-0.079611797485,-0.058231040355,0.17046590005,0.19702670485
494.0,-0.078266734075,-0.048364345759999997,0.17495912000000002,0.19791583299999999
495.0,-0.082575525555,-0.039724382145,0.1734885185,0.19620239705
496.0,-0.074072065625,-0.04944995218,0.17511692345000002,0.1964703117
497.0,-0.070249396645,-0.051816873925,0.17797877625,0.19823892510000002
498.0,-0.07597227006,-0.054523585885,0.17286148185,0.19655935875
499.0,-0.077971968285,-0.061817556159999995,0.1709353667,0.1977993491
500.0,-0.07732076994,-0.06509606397500001,0.16956611175,0.19742457665000002
501.0,-0.073594854785,-0.06431311384499999,0.1712377472,0.19717036385
502.0,-0.070233834055,-0.06515206903,0.17269276595,0.1975019537
503.0,-0.07425006964,-0.068338845485,0.16871546469999998,0.19659927095000002
504.0,-0.068367706745,-0.06641188910000001,0.17186502785000002,0.1965496539
505.0,-0.08053805923,-0.061925149445,0.1703794536,0.19837042605
506.0,-0.076280949095,-0.06421016775499999,0.1708191309,0.1978074317
507.0,-0.07547659576,-0.06430380187500001,0.16856938245,0.1956244071
508.0,-0.079349700365,-0.06867446564,0.16771414875,0.19786475074999998
509.0,-0.07592894932,-0.068245016115,0.16895331975,0.19748279385
510.0,-0.07774866195,-0.06407476607,0.16884059,0.1966152967
511.0,-0.08084756395,-0.06544799677499999,0.16742201810000001,0.1971561958
512.0,-0.0866620314,-0.06527921686,0.16483539305,0.19734227185
513.0,-0.078237103825,-0.06999051987999999,0.1668738053,0.19715038385
514.0,-0.0759605723,-0.07072993138,0.16840921725000002,0.1978505796
515.0,-0.07837278984,-0.06684257045,0.16698996265,0.1962227581
516.0,-0.08028563469,-0.068635183005,0.16810965655,0.1985539795
517.0,-0.07631459804,-0.07297127406000001,0.16677546640000002,0.19742710665000002
518.0,-0.07239430547,-0.07622286677000001,0.1658044736,0.1963230492
519.0,-0.079661702355,-0.079933501425,0.17128829355,0.2063785508
520.0,-0.07379111032499999,-0.06523321356,0.16630395255,0.19554360895
521.0,-0.092362858355,-0.07847711257500001,0.14932867885,0.1928550044
522.0,-0.083584977585,-0.052853621615,0.17195146765,0.19843041109999998
523.0,-0.091646260965,-0.060448336905,0.16539961209999998,0.19852126415
524.0,-0.09739734389,-0.059204118325,0.16470378875,0.20029998934999999
525.0,-0.1022036861,-0.05251174466,0.163678028,0.2000013768
526.0,-0.100390829625,-0.053395686314999996,0.1632859942,0.19899117285
527.0,-0.094510060645,-0.05520522651,0.16684635175,0.1995917221
528.0,-0.08705423647499999,-0.056667829575,0.1689307712,0.19831760725
529.0,-0.082070771135,-0.060195884150000004,0.16860416895000002,0.19695771515
530.0,-0.07542605118000001,-0.064071649595,0.16985087840000002,0.19659742185
531.0,-0.07728564190000001,-0.059959605815,0.1646850447,0.1915968576
532.0,-0.077267334005,-0.06552214578,0.1523183341,0.18293352959999998
533.0,-0.06907835313999999,-0.06551594888000001,0.1491040876,0.17693794405
534.0,-0.06972032641,-0.061674890125000006,0.14866998535,0.17541469459999998
535.0,-0.062409066015,-0.06620961522499999,0.1490971247,0.17469613220000002
536.0,-0.064051688725,-0.061907178810000005,0.15067209869999998,0.17505525049999998
537.0,-0.06766024038,-0.061643063595,0.15057100564999998,0.1762094796
538.0,-0.06422924967,-0.062288699074999995,0.1521301387,0.1765259319
539.0,-0.06282859201,-0.057990770125,0.1555777652,0.17756845875
540.0,-0.064995772975,-0.05512216241,0.15477057724999999,0.1768010243
541.0,-0.066736100805,-0.06631888651000001,0.15200649315,0.1787728172
542.0,-0.07026906690000001,-0.06097819786,0.15317518759999998,0.17922099930000002
543.0,-0.066092452235,-0.06173257695,0.15795219929999998,0.1820112841
544.0,-0.06193933265,-0.07151242228,0.15769380300000002,0.18392218845000002
545.0,-0.066182167975,-0.065734396715,0.15912000585,0.18445363065
546.0,-0.06472647785999999,-0.067091709375,0.159681193,0.1849129635
547.0,-0.07092783792,-0.06685473793999999,0.16182060809999999,0.18893286204999998
548.0,-0.073747693485,-0.06394559467,0.1652375566,0.19191583425
549.0,-0.07766870106000001,-0.059286030085,0.169918369,0.19601663805
550.0,-0.080507570335,-0.054449814459999996,0.17012876035,0.19593520279999999
551.0,-0.079821314885,-0.060808197355,0.17245848515,0.199540023
552.0,-0.08618922008999999,-0.06217550544,0.17016546324999998,0.20063260395
553.0,-0.09026891551999999,-0.054638084394999994,0.16993481225,0.20006101615
554.0,-0.088974314355,-0.05541356905,0.17023532889999998,0.1999208613
555.0,-0.08401546626,-0.059677441139999995,0.1742403528,0.2024799424
556.0,-0.080152682475,-0.06075852389,0.17427094635,0.20121566424999998
557.0,-0.07376097308,-0.06588964614000001,0.1749494568,0.2010232246
558.0,-0.07304222086,-0.067586304955,0.17427952765,0.2007854277
559.0,-0.07699532503,-0.06309412032,0.17350714765,0.20007020065
560.0,-0.077184382005,-0.06595102044500001,0.1725077947,0.20024104305
561.0,-0.075797415535,-0.06234375173000001,0.1750537606,0.20078104435
562.0,-0.0687017005,-0.05811306128,0.17943182705,0.2007611244
563.0,-0.07446400958,-0.0772080394,0.1789536699,0.20899106425
564.0,-0.0340175292695,-0.07892264137,0.18526749175,0.20827951015
565.0,-0.07494755652,-0.07246089379000001,0.17401065145,0.20328029474999998
566.0,-0.06731513642,-0.082243687915,0.1713477457,0.20168754685
567.0,-0.07852584218,-0.071997487355,0.16938994425,0.20010722465
568.0,-0.08378302529000001,-0.0763699122,0.16394959450000002,0.19932760124999999
569.0,-0.07595346439,-0.070245954725,0.16943928684999998,0.1985312199
570.0,-0.06845630112500001,-0.06901091651999999,0.1725370576,0.19803715285
571.0,-0.07221187306499999,-0.063584458725,0.17320521955,0.19815530845
572.0,-0.074211001215,-0.061210752735,0.17365792445,0.19852643485
573.0,-0.07583281649500001,-0.06605554398999999,0.17302140955,0.20014648775
574.0,-0.07818574611500001,-0.065393737915,0.17151299445,0.1995321498
575.0,-0.078948199525,-0.06819211737,0.16945843175,0.19901228440000002
576.0,-0.07752102132,-0.06460393433,0.1712895866,0.19881620725
577.0,-0.07845204436,-0.0607018404,0.17073973875,0.19747551535
578.0,-0.07730544226,-0.060916035585,0.17129850675000002,0.1975739903
579.0,-0.07194065266,-0.06512689981,0.1723544011,0.1977953745
580.0,-0.07976756126000001,-0.062187696715000004,0.1713847634,0.1990108484
581.0,-0.07682563922999999,-0.07061607017999999,0.16965095695,0.19919066505
582.0,-0.07538208077,-0.066321534495,0.17280154845,0.19989069725000003
583.0,-0.07115493377,-0.062576718225,0.17747894495,0.20121828945
584.0,-0.094063598765,-0.06501760985999999,0.17146846065,0.2061044338
585.0,-0.06609610882,-0.061224947015,0.17681369065,0.19887341655000002
586.0,-0.078483473105,-0.06301063818,0.1754952565,0.202402303
587.0,-0.07563335770999999,-0.060011889255000006,0.17580355955,0.20059262995
588.0,-0.093093371465,-0.07227656988,0.1643575091,0.20290351290000003
589.0,-0.10101393858,-0.126460909855,0.11137822319999999,0.22693815315
590.0,-0.128906916235,-0.1656979588,0.09096123558,0.2816048678
591.0,-0.1715067442,-0.021031753908499998,0.10864992395499999,0.21070410775
592.0,0.07003995349950001,-0.15013793441,0.39127412865,0.43107433185
593.0,0.254851897975,0.052169247829,0.28920796515,0.42516418949999996
594.0,-0.1619530618,0.010922789346500001,0.125452654825,0.2064727722
595.0,-0.1248752957,0.49989646851950004,0.42307987895000004,0.85947428675
596.0,-0.30328132355000004,-0.257362585885,0.03672807450000001,0.7072437544
597.0,-0.13985625045,0.1709165036,0.142550688385,0.41009206025
598.0,0.05991535865,0.14057463315000002,0.2208728147,0.40112031315
599.0,-0.39932826517,-0.2249270847235,-0.33382619150000004,0.7295202049
600.0,-0.4913837163,-0.17793646302,0.4131671672,0.7772131826
601.0,-0.1866095013508,-0.5743640274,-0.07893180259999999,0.6450614135
602.0,-0.16284287044999998,-0.068093018825,0.16879735950000002,0.28798396795000003
603.0,-0.090247857935,-0.11015515365,0.1649313281,0.22113613245
604.0,-0.073508538225,-0.040819495065,0.16904824284999997,0.204311133
605.0,-0.10172536467,-0.072171602065,0.1556298291,0.20027347895
606.0,-0.10137589642,-0.07137113107000001,0.1529918459,0.19704939640000002
607.0,-0.09218528517999999,-0.073958295635,0.16121226745,0.1999024804
608.0,-0.09451871342,-0.059649575205,0.16473975845,0.19982798699999998
609.0,-0.09433720603500001,-0.053317658485,0.16488779920000002,0.19733076285
610.0,-0.087597792825,-0.054115374869999996,0.16678742825,0.1962139691
611.0,-0.088338682345,-0.060236709284999995,0.1683225365,0.1998045356
612.0,-0.08688949236,-0.044564921800000004,0.1723201473,0.1982630976
613.0,-0.10035858608,-0.032722005065000004,0.16807898875,0.19849260149999998
614.0,-0.09498012351,-0.04618523993,0.16789637595,0.19839138025
615.0,-0.09517517694,-0.05520187869,0.16599572035,0.199167298
616.0,-0.094736475995,-0.06083438682,0.16417092435000002,0.19910881775
617.0,-0.093484555685,-0.057097332570000006,0.1645070032,0.19764357529999999
618.0,-0.08678169326999999,-0.054330496549999996,0.1717556135,0.1999737089
619.0,-0.09101998682000001,-0.048969860115,0.16961230849999998,0.19862947235
620.0,-0.09069153056000001,-0.055405078600000005,0.16715359545,0.19808300880000002
621.0,-0.09179862629999999,-0.05910627626499999,0.16705518665000002,0.19957397745
622.0,-0.0923497208,-0.06024584228,0.16589154875,0.1992099429
623.0,-0.09038257598999999,-0.06150055499,0.16682832204999998,0.199460102
624.0,-0.08951176788,-0.060570260465,0.1669811912,0.19891632685
625.0,-0.08951825276,-0.063579993325,0.16725864265,0.20008122150000002
626.0,-0.08951383924,-0.062939424365,0.16664993195,0.19937547555000001
627.0,-0.09193895825500001,-0.060464651645000006,0.1653061179,0.19858726005
628.0,-0.089784950765,-0.06424418765,0.16447345815,0.19810027215
629.0,-0.09601775094500001,-0.071159749905,0.16093631855,0.20051189590000001
630.0,-0.09591520681,-0.066178152085,0.16312962074999998,0.20072317785
631.0,-0.0843561161,-0.04685441171,0.17556959995,0.20034642554999998
632.0,-0.089407160045,-0.052472788435,0.17196032579999998,0.2008014719
633.0,-0.091705174675,-0.056039774230000006,0.1696879599,0.2008709321
634.0,-0.088212500545,-0.059854003185000004,0.17030595585000002,0.20092726654999998
635.0,-0.0933315945,-0.06043034517,0.1686995319,0.2020467823
636.0,-0.086672523855,-0.062054970529999996,0.16972394065000002,0.20042727105000002
637.0,-0.09233056170000001,-0.058421853345,0.168332394,0.20068374175
638.0,-0.0877887841,-0.05795318746,0.1691157052,0.19918225805
639.0,-0.088126629115,-0.059336172209999996,0.16884252005,0.1994877266
640.0,-0.0912738635,-0.05985843104,0.16674163214999999,0.1992931207
641.0,-0.099001336735,-0.062367197905000005,0.16429132695,0.20183575905
642.0,-0.08970332698,-0.05279924725,0.1682766369,0.19789238965
643.0,-0.10150946799999999,-0.055320948955000004,0.1648324783,0.20133187695
644.0,-0.1067321806,-0.053276389455,0.16184706655,0.20106180740000001
645.0,-0.10154210331499999,-0.05458537345,0.16165707140000002,0.1985660597
646.0,-0.096283393525,-0.057113456265,0.16624810405,0.20042909409999998
647.0,-0.094662881175,-0.060117750795,0.16548814569999998,0.19991387805
648.0,-0.093743680075,-0.061087056305,0.16569449349999998,0.1999463541
649.0,-0.09257032935000001,-0.065294374015,0.17475319649999999,0.208289192
650.0,-0.092823096805,-0.053219624635,0.1641794715,0.1960453784
651.0,-0.087151752375,-0.04481917092,0.177337525,0.20332354484999998
652.0,-0.088562401515,-0.046800181975,0.17499110055,0.20165473960000002
653.0,-0.08280683628,-0.053107713425,0.18018180795,0.2053041103
654.0,-0.08098902778,-0.05208657658,0.1788471464,0.2031219729
655.0,-0.086125635205,-0.04592713482,0.1799254739,0.20470893175
656.0,-0.08893149407,-0.0434395153,0.17720028615,0.20298204785
657.0,-0.09220022336,-0.045530926435,0.1761719659,0.20398882899999998
658.0,-0.09674014364,-0.045799344305,0.17446158420000002,0.20467962315
659.0,-0.094159729175,-0.04409056908,0.1745503785,0.20319405775
660.0,-0.09287376321,-0.049499412395,0.17362668329999997,0.2030447121
661.0,-0.089320730535,-0.050769000225,0.1775774682,0.20515731315000002
662.0,-0.088237912485,-0.053349348330000004,0.17521782435,0.20332318524999998
663.0,-0.08601070723500001,-0.059240866,0.17484907235,0.2036699608
664.0,-0.088129661135,-0.050181193935,0.17666717594999998,0.20371153035
665.0,-0.097213278365,-0.04797807207,0.1745598331,0.2062039339
666.0,-0.06523099711,-0.06276273932,0.17302144205,0.19532276975
667.0,-0.1186672557,-0.05703299292,0.16363225975,0.21228029855
668.0,-0.08019839481499999,-0.0507442461,0.18064345595,0.2041209671
669.0,-0.09042606790999999,-0.051188160395,0.17313174445,0.201997323
670.0,-0.09889608814,-0.058643518405,0.1671609953,0.20290843660000002
671.0,-0.093633861445,-0.06347610701,0.16338072780000001,0.19883966025
672.0,-0.095264354585,-0.053008391045,0.1733815249,0.20482502915
673.0,-0.08486698503000001,-0.055899932415,0.17492452725,0.20236322015
674.0,-0.091020354425,-0.054224025179999996,0.17445669000000003,0.20444475325
675.0,-0.08617295852000001,-0.037844094865,0.1777675409,0.20116564744999998
676.0,-0.104602802,-0.046026480885,0.16662009425000002,0.20212288655
677.0,-0.10911481435,-0.05186311494,0.16237345450000001,0.2023905917
678.0,-0.10155037495,-0.05365193523,0.16652078045000002,0.2022902088
679.0,-0.1007077632,-0.054768917145,0.16715704199999998,0.20269393265
680.0,-0.098143831355,-0.056371006274999996,0.1670589908,0.20180487955
681.0,-0.096335696395,-0.05708253579,0.16819630295,0.20208855809999998
682.0,-0.09249345080999999,-0.06269097707,0.1677695388,0.20157778640000001
683.0,-0.093438439795,-0.05541945309,0.16861171205,0.2005839771
684.0,-0.09220484703500001,-0.05902753747,0.1702189143,0.2023888482
685.0,-0.087959880455,-0.06214580315,0.17157140095,0.20257860935
686.0,-0.088876784795,-0.058547986875,0.17101250755,0.20143073655
687.0,-0.09028709881,-0.0566913021,0.1707328804,0.20129284005
688.0,-0.08886499956999999,-0.055391200625,0.1729720514,0.20220108215
689.0,-0.091291072925,-0.052115402695,0.1713865605,0.20107697315
690.0,-0.09183128767000001,-0.05373540719,0.16997534685,0.20054274945
691.0,-0.091609081165,-0.058679357599999996,0.16882474125,0.2008427506
692.0,-0.087247542915,-0.059015823324999994,0.17035298510000002,0.2002887325
693.0,-0.08754521979999999,-0.06274371910000001,0.1710051462,0.20210039829999998
694.0,-0.08313300661,-0.059681377375,0.1720355222,0.2001739538
695.0,-0.087778945975,-0.056933722585,0.17151874335,0.20092080140000002
696.0,-0.086988784725,-0.058271877449999995,0.17238031674999998,0.20169499915
697.0,-0.09121023361,-0.05591705947,0.17041227385,0.20123061455000002
698.0,-0.09507536418,-0.05484576492,0.1690552673,0.201565154
699.0,-0.094824098405,-0.05678413974,0.16770079025,0.20085971625
700.0,-0.093027290465,-0.057610087075,0.17006930469999998,0.2022308084
701.0,-0.09095477472499999,-0.0554828574,0.170990312,0.20147664440000002
702.0,-0.089009468545,-0.060493403939999996,0.1703641911,0.20151922545
703.0,-0.08908820897,-0.058261744680000005,0.1682766825,0.19911938629999998
704.0,-0.08593653083,-0.06058800886,0.1704516043,0.200281415
705.0,-0.088312627835,-0.063203445235,0.16852440525,0.2004885091
706.0,-0.08916186132000001,-0.06417404706499999,0.1686920946,0.2013115671
707.0,-0.08832366883000001,-0.05845176038,0.1686749988,0.199171129
708.0,-0.089051190915,-0.06068062111,0.16870955389999998,0.2001979851
709.0,-0.09079295332500001,-0.05634527196,0.1669537345,0.19826323765
710.0,-0.095541873705,-0.05617035668,0.1649837495,0.19876365105
711.0,-0.088331400525,-0.061879686815,0.16845293415,0.2000214501
712.0,-0.09366527416,-0.05453047132,0.1686100433,0.20051140605
713.0,-0.08041075037,-0.047042676719999996,0.1756214171,0.19932794145
714.0,-0.089232975575,-0.04922241396,0.1718673654,0.20000745705
715.0,-0.09075201107,-0.048607298475,0.1727426638,0.20198041735
716.0,-0.1053180887,-0.04575787629,0.16210950575,0.19872874825
717.0,-0.11610995125000001,-0.046501045010000006,0.15587417435,0.19993705835
718.0,-0.11401673655,-0.060539010909999996,0.1548411004,0.2019084192
719.0,-0.1187834999,-0.050053481165,0.1532340787,0.20027799515
720.0,-0.11102772515,-0.04804208354,0.1574500326,0.1986247929
721.0,-0.099417063415,-0.053114394940000004,0.16489974395,0.19974708035
722.0,-0.09755833303,-0.054839536065,0.16503691674999998,0.1994058554
723.0,-0.10531838659500001,-0.0627930334,0.1630532055,0.20520276394999998
724.0,-0.1175054921,-0.042949044355,0.1603989421,0.20395120989999999
725.0,-0.16127290090000002,-0.4689032086,0.23928229421,0.5767935364
726.0,0.11734760240000003,0.004758497700000031,0.2719752940000001,1.7471791804999999
727.0,0.019043930914999996,0.03201492605,0.35179525145,0.43371155075
728.0,-0.075332076705,0.161454100755,0.394251162,0.44148308185
729.0,0.0017222804859999999,0.07197409473500001,-0.057081217200000006,0.24231121285
730.0,0.0025432053000000003,0.10032559212,0.18454183715,0.21233883575
731.0,-0.08255604489,0.17195395222,0.28280750595,0.34780403945
732.0,0.23396574941499998,-0.08916110740000001,0.061755499544999995,0.33857260164999997
733.0,-0.5624998449,-0.176849056,0.4135546163,0.7202146102
734.0,0.20738910875,0.40106009985,0.0796746063,0.682472056
735.0,-0.3892783192,0.32718880525,0.16155453720000001,0.80822519435
736.0,0.422486753,0.1669046344855,-0.013956829150000002,0.5566536735000001
737.0,0.07836166884999998,0.02293342790000001,0.1740829541,0.5785971549
738.0,0.060939527699999996,-0.1391709176,0.352492960555,0.6376567199500001
739.0,0.078888434846,0.074741741255,0.07704542749,0.1749651003
740.0,0.10725977827000001,0.011953664205000002,0.26402804209999997,0.2937772636
741.0,-0.43253954565,0.343496617785,0.10224275420500001,0.6820936904999999
742.0,-0.20951267936,0.45713448925,0.03488948610000003,0.9047146770500001
743.0,-0.185835184165,-0.3773773814,-0.0096293080395,0.5328317169
744.0,0.0012132165000000028,0.000879182285000002,0.3250659474,0.4188985789
745.0,-0.040680474707,-0.15284169097,0.2216721754,0.2830909037
746.0,-0.09882214842,-0.06151654128,0.16244058215,0.19994253039999998
747.0,-0.097472238335,-0.051379204065,0.16887867104999998,0.20230979635000002
748.0,-0.0943209992,-0.052164624044999996,0.1700885,0.20150761984999999
749.0,-0.106719444665,-0.058556585085,0.1617882214,0.20295061585000002
750.0,-0.09815866040999999,-0.06683465469,0.1656915262,0.20417089815
751.0,-0.09788705690999999,-0.07343710071500001,0.16223502235,0.2032714036
752.0,-0.10289405705,-0.07680809616,0.15883945295000002,0.2042669594
753.0,-0.09864128202,-0.06505325105000001,0.1635809626,0.20183556845
754.0,-0.09676658912,-0.059481089235,0.16705715459999998,0.20201833915
755.0,-0.09718852573,-0.061445438670000005,0.1667451707,0.20255358325
756.0,-0.092289467325,-0.05880751375,0.16932799385,0.2016156933
757.0,-0.09434847005,-0.057083863045,0.16977745365,0.20244990550000003
758.0,-0.09291075329500001,-0.059602990450000004,0.1696309367,0.2023884564
759.0,-0.09214448611500001,-0.05673100497,0.170726274,0.2021415597
760.0,-0.09249703089,-0.054883597295,0.1713157033,0.2022857354
761.0,-0.09068919864,-0.05810766918,0.1709334424,0.2020418794
762.0,-0.09068826779,-0.05838749793,0.17210466494999999,0.2031235903
763.0,-0.0884574787,-0.060205151515,0.171565877,0.20220562705
764.0,-0.08654482364499999,-0.0601208965,0.1725450754,0.20217955045000002
765.0,-0.08686214152499999,-0.057650645755,0.17449307025,0.20326775879999998
766.0,-0.08595774275000001,-0.054469234235,0.17667246330000003,0.2039033408
767.0,-0.08697919784,-0.058297051030000005,0.17343273595,0.20259420965
768.0,-0.08572779697499999,-0.058153740654999994,0.17337458420000001,0.20196548045
769.0,-0.08651100582,-0.06187824857,0.1708075517,0.20121725155
770.0,-0.09102166904,-0.061326387504999996,0.17131611175,0.2034765271
771.0,-0.09062489519,-0.06129810391,0.1700894184,0.2022651039
772.0,-0.089414685975,-0.05707701403,0.1714892453,0.20167078459999999
773.0,-0.08818787241500001,-0.060261423625,0.1719179078,0.2024166932
774.0,-0.085067700985,-0.059449365585,0.17302770805,0.20176730485
775.0,-0.08967568993,-0.058221357195000004,0.1717080646,0.20227653525
776.0,-0.092706395735,-0.05686531391499999,0.17095741775,0.202625895
777.0,-0.0924556554,-0.054545421499999996,0.17180182575000003,0.2026138471
778.0,-0.0925491632,-0.06001045505,0.1710035349,0.2034987241
779.0,-0.091706775485,-0.05732044152,0.1703780795,0.20190506879999998
780.0,-0.09266899153,-0.048030488134999993,0.17337774174999998,0.2024247905
781.0,-0.103275512885,-0.04751143511,0.1617514135,0.19863477105
782.0,-0.11413101719999999,-0.043237455555,0.1653485369,0.20555657775
783.0,-0.094877078125,-0.04438367551,0.17148723989999998,0.20096065359999998
784.0,-0.087341948785,-0.04891924467,0.1745113251,0.2012087367
785.0,-0.081717553545,-0.060096259384999996,0.17380740425,0.20461665075000002
786.0,-0.08903586359,-0.055427597509999996,0.16664816975000002,0.19704401215
787.0,-0.07859160699500001,-0.057664549015,0.17647022610000002,0.20163341795
788.0,-0.073680425185,-0.06043535295,0.1773996078,0.20138353935
789.0,-0.07648770771499999,-0.05569825286,0.17701167155,0.2007461267
790.0,-0.08301255852,-0.054259402675,0.1742607951,0.20051420530000003
791.0,-0.08792830237499999,-0.05498665608,0.1716460737,0.20054915415
792.0,-0.088823059775,-0.06128177921,0.1693383181,0.2008124877
793.0,-0.08869348134499999,-0.06295275417,0.1675204696,0.19974069374999998
794.0,-0.086978768235,-0.06369739794000001,0.16893772024999998,0.20041065930000002
795.0,-0.08851360113500001,-0.05938834991,0.16916534165000002,0.19995038059999998
796.0,-0.087710118675,-0.060871269820000004,0.16886268635,0.1997858338
797.0,-0.086715303555,-0.05904409155,0.1709466529,0.20057490995
798.0,-0.08519354778499999,-0.059025187525,0.17099268,0.1999531295
799.0,-0.085820303325,-0.058251507349999995,0.17104464205,0.20003735425000002
800.0,-0.08518858864500001,-0.058405359495,0.17186103055000002,0.20051221735
801.0,-0.085600713585,-0.060628093205,0.1708120933,0.2004548613
802.0,-0.082091216415,-0.056963236055000005,0.17258322534999998,0.1995506769
803.0,-0.09713266436000001,-0.049563123269999995,0.1689659627,0.20197240395
804.0,-0.1078377217,-0.042298456655,0.16427529605000002,0.20105168304999999
805.0,-0.10861206614999999,-0.041269684845,0.1639870241,0.20100470145
806.0,-0.10029951849499999,-0.05045068,0.1671300126,0.20134085670000001
807.0,-0.10288403185,-0.05901934579,0.1614695266,0.20040281285
808.0,-0.100342106095,-0.06534937583,0.16246043145,0.2018682303
809.0,-0.09271350215,-0.06066636501,0.1658548386,0.1994593412
810.0,-0.096144637755,-0.060277329335000004,0.16611522245,0.20120881364999998
811.0,-0.09773563617,-0.061071535334999996,0.16422946195,0.2006422323
812.0,-0.0937900506,-0.059299159795,0.1676685363,0.2011118588
813.0,-0.08939277369000001,-0.061595517405,0.16838637985,0.20036210385
814.0,-0.090848591475,-0.06361278726,0.16770891335,0.20106704390000002
815.0,-0.093248591605,-0.05856401091,0.16863865575,0.20140527075
816.0,-0.095242096535,-0.059508208305000004,0.1667704813,0.20107300379999998
817.0,-0.093239122425,-0.05694172293,0.1685060783,0.2008440352
818.0,-0.09337672355,-0.05701156079,0.17112442049999999,0.20311335005
819.0,-0.094457795905,-0.05784716998,0.1679587578,0.20119712480000002
820.0,-0.19140719944999998,-0.04741491511,0.18351186889999999,0.2722518688
821.0,0.04582111504999999,-0.118177182025,0.19717116655,0.2514197065
822.0,-0.055246536695,-0.044815080505,0.16004794745,0.1759225949
823.0,-0.21687130185,-0.047321060435000006,0.092641160355,0.2420478888
824.0,-0.127608545,-0.025575143675000002,0.1281382117,0.18584036905
825.0,-0.13646822367,-0.055853797239999996,0.17627657424999998,0.26125389675
826.0,-0.09089309671,-0.02585050027,0.12523375795,0.15762105735
827.0,0.2172964168,-0.3484330428,0.47492600244999994,0.7560468462
828.0,0.09744560267,-0.15441286127,0.221077328645,0.4247630062
829.0,0.09292037954999999,-0.04274157086,0.24653522384999998,0.31668440605
830.0,-0.0246787187215,0.087545479675,0.136483344115,0.17907141565
831.0,-0.01205990993,0.008389390338,0.19090305235,0.19465291070000001
832.0,0.026699779549999997,-0.03397390211,0.18346486015000002,0.2640865266
833.0,-0.087536271615,-0.05699136933,0.20476762655,0.24023529155
834.0,0.12340797272000001,0.06591891334,0.17376651459999998,0.23524583215
835.0,0.044743640875,-0.0131582488625,0.2302640206,0.2360785781
836.0,0.17871386899000002,-0.08335117306,0.1991074691,0.29005959925
837.0,-0.03922687873,0.0014030672449999986,0.2201745018,0.2260972826
838.0,0.0192993084605,-0.038712249825,0.19805444235000003,0.20444465634999998
839.0,0.1209942277645,0.008928057952,0.20218932439999998,0.2572048691
840.0,-0.0026499681057999998,-0.04665472113,0.2241438911,0.23041400945
841.0,-0.015813589565,-0.020654631645,0.21886427814999998,0.23514004225000001
842.0,0.05058595685,-0.068148258485,0.21995404435,0.23597302615
843.0,0.06452888108499999,-0.00106276332,0.21882881435,0.2605808132
844.0,0.06731710979,-0.0494526869,0.2227752604,0.2395433552
845.0,0.06514904117499999,0.032574253925,0.2058507261,0.27567136575
846.0,-0.069563173125,0.013383130412,0.23353171725,0.26835111345
847.0,-0.06994247673500001,0.01477243701,0.1923609083,0.20548704515
848.0,0.08821343335000001,0.027857101388999998,0.17179700305,0.1981761176
849.0,0.001546211044999999,0.00694206591,0.29742604935,0.29959985675
850.0,-0.23239551025000002,0.24619211549999998,0.007668404050000022,0.7677011074
851.0,0.30716894411,-0.2962446042,0.22309077731,0.57244739755
852.0,-0.3923539185,0.1012277084,-0.27191052299999996,1.15474458185
853.0,-0.91347274485,0.0051961055749999985,0.46662799320000004,1.12822925085
854.0,-0.3721002741,-0.529200147,-0.08067052384999998,0.9106230657500001
855.0,0.030625889260000004,-0.03818188737,0.28681311685,0.29473227695000004
856.0,-0.049153709825,-0.045592971955000006,0.20799233285000002,0.21890077875
857.0,-0.081555158865,-0.05307658834,0.19979004704999997,0.2222300111
858.0,-0.08164378748500001,-0.06176118714000001,0.19772983805,0.2227585495
859.0,-0.08866087618499999,-0.05774824162,0.19852145124999998,0.22522416564999997
860.0,-0.078378352515,-0.05833635467,0.2031836313,0.22563746755
861.0,-0.07383571096,-0.05124415772,0.2041766679,0.22311653245000002
862.0,-0.07451759858000001,-0.05152278949,0.2065467977,0.2256329291
863.0,-0.061847559985,-0.056316006749999994,0.20969598255,0.22593525955
864.0,-0.05165694424,-0.051806540284999994,0.21439835415,0.226785552
865.0,-0.065349301355,-0.04406900809,0.21146958115,0.22569443265
866.0,-0.068507511565,-0.042445705954999996,0.21097514045,0.22588434545
867.0,-0.06619472447,-0.043028063305,0.2119930927,0.22629615905
868.0,-0.070791126905,-0.04470545606,0.20899917245,0.22514606645000002
869.0,-0.07253634569,-0.050063216455000004,0.2078828898,0.2258042616
870.0,-0.068287290615,-0.050962220855000004,0.21031431865,0.2269821994
871.0,-0.06285418233500001,-0.04746137031,0.2127105882,0.22692531459999998
872.0,-0.065307980555,-0.048067661,0.2102908148,0.22543691605
873.0,-0.066471666235,-0.052898170655,0.20899097795,0.22563624095
874.0,-0.071205908835,-0.05081109517,0.20780175709999998,0.2254666095
875.0,-0.06306617021,-0.050755641909999996,0.20995358985,0.2250374256
876.0,-0.061029724295000004,-0.04919281599,0.21240897715,0.2264175442
877.0,-0.06874894959,-0.04163332604,0.2101214367,0.2249737047
878.0,-0.06980359463,-0.0441155965,0.2090544735,0.2249329224
879.0,-0.062697184785,-0.046093732959999995,0.20880214819999998,0.22439376454999999
880.0,-0.07877340935499999,-0.04965262227,0.20591143995,0.2260670505
881.0,-0.060138759215000004,-0.050072416125000005,0.20574331610000002,0.22017648455
882.0,-0.06256199886,-0.048925790285000006,0.20645921835,0.221221262
883.0,-0.05796063373,-0.051464731385000004,0.20793908595,0.22195584075
884.0,-0.058398970325,-0.05583060982,0.2072546255,0.22246406065
885.0,-0.06439369444,-0.05165627835,0.2061468003,0.2220617533
886.0,-0.058067770375,-0.056349050649999996,0.20727239825,0.22253336085
887.0,-0.06014487616,-0.053301901205,0.20739951055,0.2225791702
888.0,-0.05648028200500001,-0.04834946437,0.20823153145,0.22130817930000002
889.0,-0.05465080076,-0.04425757628,0.21171761690000002,0.22315570105
890.0,-0.0915063587,-0.027140873905,0.18713132815,0.22146907929999998
891.0,0.0025386049494999998,-0.07596483565500001,0.23668997519999999,0.25231643765
892.0,-0.07419375011,-0.05416176338,0.19438254645,0.21508396815
893.0,-0.074404582385,-0.039664916755,0.2001223976,0.21730669215
894.0,-0.05726841704,-0.01512671631,0.2113364197,0.21950555445
895.0,-0.053386783445,-0.011744781185,0.2161290967,0.22293720885
896.0,-0.05869162455,-0.01982997451,0.21408758314999998,0.22294153
897.0,-0.058369656305,-0.030493639939999997,0.2128318677,0.2228238095
898.0,-0.057042465254999994,-0.033560159735,0.21299801270000002,0.2230509195
899.0,-0.058027817055,-0.040429688840000005,0.21224932735000002,0.2237545506
900.0,-0.059315911375,-0.04489846669,0.20959029555,0.22240565155
901.0,-0.059730980335,-0.045525871839999996,0.2097327442,0.22277619199999998
902.0,-0.061769315049999995,-0.047185655595,0.2102253648,0.22414207745
903.0,-0.06056632361,-0.048486951755,0.2085484153,0.22251633775000002
904.0,-0.0621104242,-0.043293791119999994,0.20844400455,0.2217726387
905.0,-0.06265409441,-0.04527847574,0.20332421485000002,0.21754803685000002
906.0,-0.070441421915,-0.04369834312,0.19668124595,0.2134377315
907.0,-0.06907265447,-0.04159219563,0.1923968196,0.20864940315
908.0,-0.05830573527,-0.04412457257,0.1935649345,0.20695901020000002
909.0,-0.054183770475000004,-0.04267854597,0.19473616255,0.2065970129
910.0,-0.054514003180000006,-0.041496357275,0.1987370234,0.21024108879999998
911.0,-0.053944107085,-0.04192274336,0.2020467955,0.21329169685
912.0,-0.0510594024,-0.04001196193,0.20565213535,0.21564549895000001
913.0,-0.05497246697,-0.04428442414,0.20540105725000002,0.21719535255
914.0,-0.052227545355,-0.043349297965,0.20695978864999998,0.21781371435000002
915.0,-0.05496784808,-0.04448095764,0.2072906719,0.2190320613
916.0,-0.055763807375,-0.048603034015000005,0.2058361554,0.218729963
917.0,-0.055009125980000004,-0.042890942565,0.1990959754,0.2110014484
918.0,-0.06914081461,-0.048433291425,0.20399605599999998,0.2219205242
919.0,-0.054290305999999997,-0.039263546465,0.21020118775000002,0.2212922242
920.0,-0.083094659615,-0.037185830095,0.19506378619999998,0.21628601390000002
921.0,-0.048693206064999994,-0.03502025372,0.21241032059999998,0.2208834104
922.0,-0.057362282545000004,-0.037807350725,0.2115320227,0.22241660330000002
923.0,-0.055674361505,-0.034493762080000004,0.21467197500000001,0.22444339800000002
924.0,-0.056328109335,-0.03550054251,0.2163438721,0.22635992454999998
925.0,-0.06634796981999999,-0.038129903565,0.21310571235,0.22643108550000002
926.0,-0.06543869757,-0.02801689113,0.2151160913,0.22660378925000002
927.0,-0.06355169041,-0.032383448945000004,0.21521209045,0.22672675665
928.0,-0.06183181626,-0.0382195252,0.2153922868,0.22732878355
929.0,-0.064934071155,-0.036317544990000006,0.2148626521,0.2273827885
930.0,-0.06911395301,-0.042179641904999995,0.2114321762,0.22644033025
931.0,-0.06961100805,-0.040547442239999995,0.21143289469999998,0.2262833435
932.0,-0.0703674234,-0.039561303650000004,0.21069865225,0.2256338898
933.0,-0.06653201595,-0.042190415425,0.21212524955,0.22628870915
934.0,-0.06369516164,-0.037094298005,0.21488426475,0.22718007865
935.0,-0.05873837959,-0.03541890637,0.21637675695,0.2269886273
936.0,-0.059321183915,-0.035831978274999995,0.21728999155,0.22807540440000001
937.0,-0.057835665445000004,-0.04092920307,0.21743445245,0.22870118904999998
938.0,-0.063560273685,-0.04437637733,0.2139386727,0.22756052585
939.0,-0.06502468056499999,-0.034990113875,0.2151528313,0.2274887846
940.0,-0.062594329395,-0.040529073155,0.2131478106,0.2258398565
941.0,-0.060322258625,-0.04271274153,0.21512298285,0.22749446239999999
942.0,-0.065527756625,-0.0422421437,0.21323573755,0.2270588653
943.0,-0.064769985685,-0.04797121653,0.2120192254,0.22683605245
944.0,-0.061814678585,-0.045213994095,0.21273025304999998,0.22612709555
945.0,-0.05902717449,-0.045411125755000004,0.21441217515,0.22698251484999998
946.0,-0.05411854413,-0.040877222415,0.21669848505,0.22706675355
947.0,-0.054493145755,-0.038343778605,0.21695512675,0.22698739839999998
948.0,-0.058583562955,-0.04100984447,0.21514611155000002,0.22672954455
949.0,-0.06208577656,-0.041291269565,0.2143729502,0.22698249375000001
950.0,-0.063397227805,-0.04074312257,0.2147660695,0.22761674165
951.0,-0.06120236591,-0.04116577469,0.2137338966,0.2261029172
952.0,-0.058280867895,-0.036122499285,0.2162388161,0.22686574534999998
953.0,-0.05683693395,-0.037111362735,0.21636359924999998,0.22677534995
954.0,-0.057791814515,-0.03839027155,0.21536291065,0.22627035665
955.0,-0.05956867485,-0.03869292712,0.2154752036,0.22689703719999998
956.0,-0.06155238458000001,-0.037593319095,0.2154536904,0.22734915805
957.0,-0.10865952441,-0.027218948465,0.2044616589,0.2389250139
958.0,-0.04945914931,-0.071860925145,0.19907424764999998,0.23088996225
959.0,-0.09877534382,-0.095533746195,0.217046339,0.26736552655
960.0,-0.05268164726999999,-0.028997712980000003,0.2110079193,0.22479457349999998
961.0,-0.07402907478,-0.03993803452,0.20876701295,0.2274413463
962.0,-0.05969851953,-0.050463228715,0.2121218264,0.22612814025
963.0,-0.06793635625,-0.04769388681,0.21140761755,0.22789861205
964.0,-0.08023605273000001,-0.04858638086,0.20677859445,0.22852813095000002
965.0,-0.06956518869,-0.051648653605,0.2093387816,0.2266033502
966.0,-0.065478222685,-0.058018166575,0.20926600335,0.2268273581
967.0,-0.0624564928,-0.05661953248,0.21032620489999998,0.2266052882
968.0,-0.066043237235,-0.050306247474999996,0.2103419123,0.226145566
969.0,-0.06793724355,-0.051383788624999996,0.20987415310000002,0.22650514625
970.0,-0.06939513260499999,-0.04975888806,0.2084630459,0.22527678115
971.0,-0.067507489785,-0.046770972305000005,0.20975428725,0.22526235579999998
972.0,-0.06806524657,-0.054768906905,0.2090667263,0.22659265690000002
973.0,-0.068227637855,-0.05335655063,0.20838784545,0.2256765494
974.0,-0.066482423155,-0.058229601945,0.20734578435,0.22540473785
975.0,-0.06719274176000001,-0.052473581425,0.2100001362,0.22666773595
976.0,-0.06792017009000001,-0.048398075945,0.20920153325000002,0.22521828565000002
977.0,-0.067816554555,-0.046588961095000006,0.21119533265,0.22666319265
978.0,-0.067048012265,-0.046841086850000005,0.20917261215,0.22459809555
979.0,-0.066427081355,-0.0514862509,0.20882757125,0.22511133945
980.0,-0.064610903545,-0.0520284677,0.20843837185,0.22434562225
981.0,-0.05916387094,-0.04821645557,0.21120479375,0.2245904939
982.0,-0.06336657577999999,-0.05253981022,0.2101603085,0.2257081333
983.0,-0.06394294898,-0.049757074740000004,0.2106429887,0.2256914593
984.0,-0.067091237065,-0.050159997984999996,0.20746011375,0.2237373324
985.0,-0.068173047575,-0.054270978445,0.20676736365,0.22437859485
986.0,-0.064405355975,-0.05574914475,0.2087676471,0.22549004865
987.0,-0.06748694395999999,-0.05566005118,0.20695612405,0.22468529225
988.0,-0.0635144796,-0.046537514200000005,0.21106707705,0.22529658205
989.0,-0.062109536815000005,-0.044910913605,0.2121371754,0.22556129665000002
990.0,-0.062019970805,-0.046243197205,0.2099293431,0.22373229525
991.0,-0.06281454196,-0.049267826645,0.21141377555000002,0.2259860892
992.0,-0.06608714449,-0.054079978475,0.20845169675,0.22529490340000002
993.0,-0.06742969303,-0.052560597065,0.20657101345,0.2235861206
994.0,-0.065698903705,-0.05299298725,0.20236733605,0.21926680435
995.0,-0.062552771875,-0.04846276745,0.20423591705,0.2192139072
996.0,-0.08006864209,-0.041356985605,0.20025397885000001,0.22120846145
997.0,-0.053550610015,-0.039613971515,0.20798640315,0.219556184
998.0,-0.061663276700000005,-0.029538349745,0.2149465357,0.22608603254999998
999.0,-0.08176099877,-0.024003066713500002,0.20279418855,0.22631627225
1000.0,-0.06076709407,-0.044128205215,0.2004214181,0.21512260830000002
1001.0,-0.04654403613,-0.041970957015,0.213371062,0.22346555085
1002.0,-0.058631226375,-0.04717813905,0.21274770334999998,0.22607324265
1003.0,-0.063055576005,-0.030116323543500002,0.20939269855,0.23841140225000002
1004.0,-0.07611347723,-0.03494180664,0.20709704010000002,0.23173444725
1005.0,-0.072597222825,-0.032024911039500004,0.21454113565,0.2308069821
1006.0,-0.055553527585,-0.057572636535,0.20893662625,0.2388588494
1007.0,-0.05684526032,-0.050387601545,0.20578304744999998,0.21991602735
1008.0,-0.059296407585,-0.06232647042,0.2091663805,0.22819610475000002
1009.0,-0.104985447475,-0.043875441604999996,0.20649961830000002,0.2360661428
1010.0,-0.155231808855,-0.141798124415,0.19527466335,0.30132942115
1011.0,-0.1290615262,-0.025784567825,0.11433101015000001,0.6120862713499999
1012.0,-1.7635221545,-0.28874443920000004,-0.59529386275,2.1156467185
1013.0,-0.3530216583,-0.19404373725000001,0.3522156025,0.68638416385
1014.0,-0.09735477384999999,0.13726078445,0.11596153579999999,0.204846582
1015.0,-0.17819582469999998,0.105709340815,0.1304668964,0.4475856351
1016.0,1.331468599,-0.8867039472,1.109662185,1.946895653
1017.0,-0.2477962072,0.2143409437,0.143234292255,0.48150251385
1018.0,-0.05282836080000003,-0.68460763692,0.6006046672500001,1.53422606
1019.0,0.2981168027,-0.9495672845500001,0.017576948649999993,1.0398010333999999
1020.0,-0.08256452543500001,-0.125987748095,0.2749274186,0.34461464575
1021.0,-0.0908271729,-0.03333868266,0.1961215046,0.22046449665
1022.0,-0.036752965757,0.0228324248255,0.23943922415000002,0.2469820425
1023.0,-0.021628587725000002,-0.03909615424,0.22283760195000002,0.2303965353
1024.0,-0.063547083455,-0.04713171977,0.21419088214999998,0.22913783245000002
1025.0,-0.044990113804999995,-0.03379319774,0.2233198711,0.23051658075
1026.0,-0.042018397459999995,-0.038786906100000004,0.2211495127,0.22934653815
1027.0,-0.062189271465,-0.02365861265,0.21945119145,0.22939715189999998
1028.0,-0.039377317715,-0.034424191374999996,0.22112262729999999,0.22723206554999997
1029.0,-0.071195874615,-0.021383590335,0.2159935885,0.22966201495
1030.0,-0.0589249525,-0.02918519499,0.2184733553,0.2290067438
1031.0,-0.0477444459,-0.035376576635000004,0.22082794249999999,0.2287166852
1032.0,-0.045616940755,-0.032543973515,0.22177845435,0.22911392865
1033.0,-0.042154070190000004,-0.038708358455,0.22204055835,0.22950474795
1034.0,-0.052130245165000005,-0.02701375291,0.21753286765000002,0.22563287869999998
1035.0,-0.04832967897,-0.03741687434,0.2210985712,0.2299250722
1036.0,-0.043981080598,-0.03499104213,0.22473135179999998,0.23555808065
1037.0,-0.037491487605,-0.04289615558,0.2238259275,0.23171695920000002
1038.0,-0.04062302751000001,-0.03366165929000001,0.22242414205,0.22860251905
1039.0,-0.04479103114,-0.03120829553,0.22048990755,0.22722381105
1040.0,-0.049292398434999996,-0.027829810275,0.21660833265,0.22389841259999999
1041.0,-0.035131020345,-0.041835230805,0.22771334599999998,0.23429500185
1042.0,-0.04352568329,-0.03282073607,0.22317884445,0.22997663810000002
1043.0,-0.045842447445000004,-0.03083456851,0.2212965795,0.2281254608
1044.0,-0.03651406515,-0.02846853618,0.22430040834999998,0.22904882085
1045.0,-0.038159455245,-0.026763280804999998,0.22313693355,0.22796026175
1046.0,-0.049254881215,-0.01886180043,0.220405139,0.22704340950000002
1047.0,-0.05575896655,-0.041801570885,0.22114886005,0.2323381322
1048.0,-0.056339244994999996,-0.033268492375,0.21488039075,0.22477164245
1049.0,-0.05764232137,-0.041685487265,0.21781639079999998,0.2291518757
1050.0,-0.05533664301,-0.043653258119999996,0.21532033385,0.22656624485
1051.0,-0.042572650245,-0.03550152456,0.21996821184999998,0.22797876165
1052.0,-0.07446089988499999,-0.04561438074,0.21329780725,0.2304975712
1053.0,-0.055256088575,-0.04513599002,0.21663655175000002,0.22826553905
1054.0,-0.049591698605,-0.043671704575,0.21652274589999998,0.2271920928
1055.0,-0.04420497424,-0.04397568597,0.21652951004999998,0.22533619795
1056.0,-0.05220047889,-0.043778834805,0.21625928725,0.2267495841
1057.0,-0.05691003604,-0.050038847345,0.21265950620000001,0.22577354585
1058.0,-0.06588322397,-0.052054715535000004,0.21161616795,0.2276657601
1059.0,-0.06571647983000001,-0.04674160902,0.21328589025,0.22805019405
1060.0,-0.06019751421,-0.04822268914,0.21195526850000002,0.2255569097
1061.0,-0.058905336945,-0.05098439555,0.21405324195,0.22779152665000002
1062.0,-0.05645857283,-0.053711810400000004,0.21462963905,0.22834528085
1063.0,-0.051136997010000004,-0.050572902435,0.21504914575,0.2267672521
1064.0,-0.038303085269999995,-0.043438492285000005,0.21930014195,0.22685912405
1065.0,-0.03059270041,-0.045476069055,0.22132683614999998,0.22802533725000002
1066.0,-0.031476813650000005,-0.047160905505,0.2208284499,0.22799971025
1067.0,-0.051216373465000006,-0.046509757015,0.21738964965000002,0.2281737592
1068.0,-0.048457348725,-0.039642132415,0.21911418365000002,0.2278856307
1069.0,-0.04852913318,-0.038025465605,0.21948525285,0.22798462949999998
1070.0,-0.03870887227,-0.046554730055,0.21973675775,0.22793549284999998
1071.0,-0.029797280750000002,-0.051671556265,0.21949645955000002,0.22746180430000001
1072.0,-0.031033369295000002,-0.052740885205000004,0.22049776235000002,0.2288560428
1073.0,-0.038090013320000005,-0.05234412636,0.21773046159999998,0.22716587235000002
1074.0,-0.041403705134999996,-0.051105703350000004,0.2169815776,0.22675797279999999
1075.0,-0.039986670190000004,-0.047279671715,0.2173087215,0.22597289345
1076.0,-0.04066869025,-0.047085319614999996,0.2176895196,0.22640873305
1077.0,-0.039051485420000004,-0.050146032795,0.21788253725,0.22697360830000002
1078.0,-0.046920159895,-0.040413567735,0.2188160408,0.22747041205000001
1079.0,-0.05413066968,-0.03471306339,0.2169560641,0.2262853507
1080.0,-0.04718304053,-0.037649529055,0.2198795378,0.22815667295
1081.0,-0.054414598486869505,-0.05199262151,0.20895844435,0.2302360833
1082.0,-0.05294161963,-0.03475610115,0.21559518875,0.22470698275
1083.0,-0.054329217634999996,-0.03818676847,0.2153526625,0.22539488400000002
1084.0,-0.056440831489999996,-0.037498407255000005,0.21574163035,0.22613803710000002
1085.0,-0.04988307503,-0.042811131495,0.2150940384,0.2249269121
1086.0,-0.04909896338,-0.050039816045000005,0.215749495,0.2268552042
1087.0,-0.050036207345,-0.04612057546,0.21658152349999998,0.22706569980000002
1088.0,-0.047382541125,-0.042473640355,0.2175393779,0.22669580235
1089.0,-0.04662802409,-0.04931585942,0.21492218494999998,0.2253993221
1090.0,-0.053387099630000004,-0.040765468215,0.21817625415,0.2298861388
1091.0,-0.04561657376,-0.044777955329999994,0.2158250506,0.225404985
1092.0,-0.053616586875,-0.0380566281,0.21788913765,0.22761198355
1093.0,-0.11702934222,-0.036992228775,0.24046247175,0.27344254455
1094.0,0.018897971370000002,-0.04480813457,0.2008822129,0.231052762
1095.0,-0.09835887035999999,-0.03779406255,0.2008977315,0.22845634415
1096.0,-0.040698913735,-0.036837114605,0.21784976095,0.2259575673
1097.0,-0.029629541555,-0.04515237969,0.22111637855,0.2279148378
1098.0,-0.061414700985,-0.039492364225,0.2163231463,0.22834441095000002
1099.0,-0.04492864492,-0.039946326755,0.2154169937,0.2238710036
1100.0,-0.047044550215,-0.033805212665,0.21950045705,0.22736176925
1101.0,-0.0728939985,-0.038154427355,0.21258202895,0.22802163004999998
1102.0,-0.06397665304,-0.04108308043,0.21482049855000002,0.22812897664999998
1103.0,-0.068109769975,-0.04077893927,0.2088742234,0.2234775493
1104.0,-0.045471834045,-0.035731436345,0.2183634192,0.2259726105
1105.0,-0.061106358255,-0.040779296365,0.21583960545,0.22804201335000002
1106.0,-0.057411454560000005,-0.034915731185,0.21672469565,0.22690422635000002
1107.0,-0.055349421115,-0.033057683865,0.2160548877,0.2254736557
1108.0,-0.05590328754,-0.03947613566,0.21639161375,0.22696796295
1109.0,-0.050865240635,-0.043849701840000005,0.2166999694,0.2268714289
1110.0,-0.055826002555000004,-0.040958223805,0.2154405117,0.22629367745
1111.0,-0.051836859425,-0.047347398045,0.21634946924999998,0.22745780825
1112.0,-0.052327012255,-0.05068414268,0.214478523,0.22651718329999998
1113.0,-0.037077565975,-0.039393316240000004,0.21789186905,0.22695214330000002
1114.0,-0.04305428825,-0.038559076375,0.21596262605,0.2236561671
1115.0,-0.049061734245,-0.041245007515,0.21883162109999998,0.22829163515
1116.0,-0.06511849760999999,-0.044418846875,0.213509656,0.22760273265
1117.0,-0.04159812587,-0.04420202424,0.21664168109999998,0.2252580233
1118.0,-0.046469073025,-0.045213877825,0.21731756075,0.226803051
1119.0,-0.043048050605,-0.052027362745,0.2172030613,0.2274623865
1120.0,-0.038188528655,-0.048334461695,0.21910497615,0.2276121862
1121.0,-0.041557907705,-0.045920777045,0.21896625605,0.2275911071
1122.0,-0.046331240610000005,-0.045222880539999996,0.21679042269999999,0.22629025460000002
1123.0,-0.04732525541,-0.04586604241,0.2181614049,0.227911383
1124.0,-0.04437919736,-0.041870293414999996,0.21925980890000002,0.2276266916
1125.0,-0.039769218445000004,-0.0410116029,0.2190790488,0.22641412840000003
1126.0,-0.03999453734,-0.04495090863,0.21903032295000002,0.22715963709999998
1127.0,-0.04655611906,-0.04464186801,0.21802229955,0.2273638147
1128.0,-0.0476130647,-0.047520070705,0.21765587125,0.2278939344
1129.0,-0.047290356685,-0.04592727376,0.2179208238,0.22768764354999999
1130.0,-0.053843084365,-0.046144235485000004,0.21560216055,0.227012708
1131.0,-0.060569560475000006,-0.0464315052,0.21489865515,0.22804882705
1132.0,-0.055657179475,-0.04607538673,0.21828743355000002,0.22995269115
1133.0,-0.05272924356,-0.051824174255,0.2159731636,0.22828541785
1134.0,-0.056856185229999995,-0.059488803845,0.21298092224999998,0.2283391071
1135.0,-0.056386370135,-0.05623534926,0.21390847429999998,0.228293093
1136.0,-0.051864033935,-0.055872904259999995,0.21543063325,0.2285227413
1137.0,-0.048973066465,-0.050096496705,0.2156677095,0.22676536120000002
1138.0,-0.04726324723,-0.05399679555,0.21660367279999998,0.22819166285
1139.0,-0.045623065275,-0.053432088904999994,0.21565393425,0.22681591895
1140.0,-0.040393954800000006,-0.048926795664999995,0.21854237715,0.2275805686
1141.0,-0.03982243204,-0.049039112355,0.2192901223,0.22822175925
1142.0,-0.045479484755,-0.049661984640000004,0.21833607030000002,0.2284859691
1143.0,-0.04718828958,-0.05629546302,0.2175724393,0.2296381505
1144.0,-0.047334117095,-0.054224012555,0.2154038232,0.22712773139999998
1145.0,-0.05026724399,-0.052198409425,0.21597762110000002,0.2278126024
1146.0,-0.045390206695000004,-0.05241833425,0.2174101645,0.22821000205
1147.0,-0.044762005825000006,-0.050143014085,0.21693988339999998,0.2271322009
1148.0,-0.041822762945,-0.041447372745,0.2185005846,0.22629542284999998
1149.0,-0.039811892415,-0.040909025885,0.2202630756,0.2275509214
1150.0,-0.041113174985,-0.0389829604,0.2193948794,0.22659233155
1151.0,-0.0477464437,-0.037573471420000004,0.21652542025,0.22502585149999998
1152.0,-0.050473773475,-0.045564382475,0.2214290086,0.2324400163
1153.0,-0.055612900335,-0.040960539415,0.21502474245,0.22840232925
1154.0,-0.039300923235,-0.046065963805,0.22013492135,0.22911250405
1155.0,-0.050167298505,-0.040821218605,0.21733518595,0.22677972395
1156.0,-0.051443948010000004,-0.041223741005,0.2170624564,0.2268629243
1157.0,-0.049507453795,-0.04692968132,0.21719088204999998,0.22769711575
1158.0,-0.048784076015,-0.04758569103,0.21764061575,0.22808285125
1159.0,-0.042260734135,-0.04727692677,0.21791019174999998,0.22695615115
1160.0,-0.038592550505,-0.0455722621,0.2200129011,0.2280025826
1161.0,-0.043007627835,-0.044761094685,0.21921119719999999,0.22785392389999998
1162.0,-0.045495644695000004,-0.04797659736,0.2177129602,0.2275604463
1163.0,-0.05283696474,-0.05009593425,0.21637294415,0.228297215
1164.0,-0.047972445195000005,-0.04535340147,0.21800101090000001,0.22785098975
1165.0,-0.04643578122,-0.043553436825,0.22028635355,0.22930605199999998
1166.0,-0.05045920995,-0.04863730746,0.21603520455,0.2271319926
1167.0,-0.052104601635,-0.043708847055,0.21801348415,0.22838813025
1168.0,-0.049605070595,-0.0453483311,0.21853044295,0.22863782265
1169.0,-0.049460172405,-0.048271840235,0.21766071015,0.22838915095
1170.0,-0.048098152899999996,-0.047617844795,0.219002496,0.22925590010000002
1171.0,-0.055681253915000006,-0.043961993729999996,0.21751863245,0.22890802475
1172.0,-0.04781753011,-0.03775756713,0.2193869874,0.2277110749
1173.0,-0.043904467265,-0.03719997431,0.22024391035000002,0.22765586835
1174.0,-0.047219161125,-0.04120533681,0.2184459499,0.2272683856
1175.0,-0.049358773854999996,-0.04715661984,0.21756431485,0.22802591165
1176.0,-0.047060771515,-0.04382328452,0.2192691216,0.22850859745000002
1177.0,-0.045740695225,-0.046112342485,0.2189624196,0.22839578685
1178.0,-0.043601639105,-0.046151318395,0.2196113315,0.2286124465
1179.0,-0.048314568365000005,-0.043467978795,0.21687198255,0.22644940655
1180.0,-0.02524141491,-0.056663329799999995,0.22171545204999998,0.23026789265
1181.0,-0.069468665505,-0.04520585556,0.2136226008,0.2292003346
1182.0,-0.038305478145,-0.05189634688,0.21799808575000001,0.22749950484999998
1183.0,-0.04599993658,-0.052891911215000004,0.2174365096,0.22847525429999999
1184.0,-0.044734605145,-0.03879783222,0.2191931071,0.22708197845
1185.0,-0.04775844959,-0.0461897394,0.21797142175,0.2278989694
1186.0,-0.042023142279999995,-0.050042445199999994,0.21886753344999998,0.22843823195000001
1187.0,-0.04123469679,-0.0508961707,0.21941523959999998,0.228997756
1188.0,-0.03984214772,-0.049466883885,0.21886517975,0.22789902304999998
1189.0,-0.03987289266,-0.048271756969999996,0.2200858844,0.22884207285
1190.0,-0.03611512773,-0.044672654374999995,0.22031219745,0.2276843888
1191.0,-0.037285187195,-0.044882687539999994,0.2206934991,0.22831236035000002
1192.0,-0.038519958815000005,-0.04842648099,0.22020710115,0.22873743445
1193.0,-0.040566327964999996,-0.04583093663,0.22122127925,0.22954320335
1194.0,-0.042957479625,-0.04795340105,0.218842426,0.22811640495000002
1195.0,-0.045822108885000004,-0.045772973684999996,0.2186874612,0.22807935735
1196.0,-0.04495724799,-0.04410122406,0.2195089734,0.2283664527
1197.0,-0.04503519805,-0.044516292614999994,0.22014747885,0.22907905220000002
1198.0,-0.04572346597,-0.04589358416,0.21824490824999998,0.22767640665
1199.0,-0.044887398960000005,-0.042338151234999996,0.21855962055,0.22710469475
1200.0,-0.038409431775,-0.04415352855,0.220757439,0.22838785960000002
1201.0,-0.041652468115,-0.046262644455,0.21993651535,0.22861957305
1202.0,-0.043186214779999996,-0.043053417185,0.21980575135000002,0.2281209414
1203.0,-0.045885869025,-0.044094480855,0.2202838735,0.2293281292
1204.0,-0.043706640605,-0.04630548507,0.2190961242,0.22816794185
1205.0,-0.0373401604,-0.04759599576,0.21989708855,0.2280807063
1206.0,-0.04197068441,-0.0448025711,0.2200193254,0.228423537
1207.0,-0.045818616255,-0.043312523805,0.21818757020000001,0.22712353105
1208.0,-0.051699107325,-0.048707254625,0.2171193798,0.22846229070000001
1209.0,-0.054579076675000004,-0.049675799835,0.21646530515,0.22870736985
1210.0,-0.048697793855,-0.041615569965,0.21919418125,0.22854729915
1211.0,-0.037410787775,-0.048682440985,0.19991472435000002,0.21027626075
1212.0,-0.089277064605,-0.04171603053,0.22605226885000002,0.24815252435
1213.0,-0.03766021563,-0.03924330674,0.22306778815,0.22967574745
1214.0,-0.06102128695,-0.03177043962,0.20568007500000002,0.22010279155
1215.0,-0.04388877607,-0.0473718807,0.22089013019999998,0.2313421803
1216.0,-0.0251814233415,-0.040286999935,0.2202991675,0.22738734955
1217.0,-0.05901159363,-0.06604851529,0.2246213246,0.24282122005
1218.0,-0.173623105815,-0.06492635645,0.155434859175,0.34848366480000004
1219.0,-0.12138838627500001,0.01471751215,0.1715454786,0.2629850059
1220.0,-0.18460792375,-0.0011838582200000003,0.15185258415000003,0.2491323111
1221.0,-0.38593795934999997,0.250586380055,0.69567387815,0.8414211318
1222.0,-0.82079392975,-0.71382721465,-0.41961907015,1.2811727265
1223.0,0.0030884557499999965,0.2364888513,0.29950034049999996,0.43013696855
1224.0,0.023714558891,0.094967968535,0.19217462345,0.21921741965000002
1225.0,-0.0068714203409999996,0.09917564938500001,0.18587857045,0.2109252876
1226.0,0.00234733691,0.09883359931499999,0.17009856175,0.1974174863
1227.0,-0.0040132293695,0.097443472045,0.19691293835,0.2198118656
1228.0,-0.0092216996485,0.10307996250000001,0.17768255300000002,0.20567054829999998
1229.0,-0.009828725327,0.10015826756,0.1866676618,0.21214351835
1230.0,0.36037968605000004,0.109000583695,0.29827315615,0.61520045185
1231.0,0.0632674448702,-0.35870003245,0.24729545775,0.62815260895
1232.0,-0.05944466734999998,0.14856980968,0.034627955749999995,0.47355370145
1233.0,-0.2137269339,0.023792603299999993,0.31630617660000004,0.69109099895
1234.0,-0.11443335385,-0.1795477189,0.08639257785499999,0.4626472679
1235.0,-0.10513063785500001,0.0532591476,-0.05825668715,0.40715191265
1236.0,1.0717584743150002,-0.070936747955,1.2087219961,1.6595459696000001
1237.0,0.08493212155000002,0.158449895925,0.1955302338205,0.3364068069
1238.0,-0.116467441805,0.11586443963,0.12542465,0.2516063307
1239.0,-0.063965758146,0.08571140366999999,0.075007981645,0.15311355575
1240.0,-0.06298657002,0.11092702421,0.11432630020000001,0.17201013315
1241.0,-0.071673871865,0.1116110384,0.1062958018,0.1707128295
1242.0,-0.08132913523,0.09606135636499999,0.098165020365,0.16642281245
1243.0,-0.050269368845,0.1159850479,0.11371361835,0.17228964545
1244.0,-0.06049735522000001,0.10891164585,0.12096295059500001,0.17807382
1245.0,-0.056737999765000005,0.11330137330000001,0.11284399799,0.1711998822
1246.0,-0.20111286495,-0.251808344705,0.1413237726,0.42164772445
1247.0,2.0211561763,-1.2694691405499998,1.44318089205,2.8119793701
1248.0,0.0832548256,0.14570213111500002,0.16768339411,0.3934171726
1249.0,0.07753384883,0.04387539278,0.21158199365,0.2303395517
1250.0,0.029893039158,0.041743620965,0.22961724515,0.2364022703
1251.0,0.00570229268,0.04008165308,0.2161748287,0.2215368169
1252.0,0.036887933809999995,0.039557965275,0.2185880468,0.22558950615
1253.0,0.03468130665,0.038360598605,0.21247411115,0.21878451415
1254.0,-0.52898578515,-0.41815803127,0.13105996735000003,1.0887023469500001
1255.0,-0.3966912014,-0.14805567024,0.5011003197,0.7031279054
1256.0,-0.4658992915,-0.131254521635,0.028147436315,0.49169029295
1257.0,0.150133941795,-0.17227238484999996,0.14651206557500002,0.46261598865
1258.0,-0.064590015675,-0.03553821420000001,0.27575570925000004,0.32067479109999997
1259.0,-0.1641469544,0.08457472098499999,0.21373048805,0.28261651735
1260.0,-0.109410449455,-0.038833787295,0.18327288735,0.21970426469999998
1261.0,-0.10938566525,-0.04200281335,0.18549120835,0.2194050384
1262.0,-0.09795572446,-0.039231189025,0.18923189845,0.2169668984
1263.0,-0.094818489895,-0.042162407015,0.1896234921,0.2162288067
1264.0,-0.08151204207000001,-0.037508357005,0.1974487666,0.2168929846
1265.0,-0.082968751755,-0.03474693507,0.19796602115,0.2174451398
1266.0,-0.08485061507,-0.03715487161,0.1965521228,0.2172927458
1267.0,-0.09367285684,-0.037260449434999995,0.19239820155,0.21736797305
1268.0,-0.090174952805,-0.0396919737,0.19286706145,0.2165771936
1269.0,-0.08580817292500001,-0.039321452095,0.19553619145,0.21713045765
1270.0,-0.08425413817499999,-0.036290146009999996,0.19564634144999998,0.21608706654999998
1271.0,-0.08382261832499999,-0.037950105605,0.1959942791,0.2165232626
1272.0,-0.08489887044,-0.03970742226,0.1975912601,0.21871291745
1273.0,-0.084158969305,-0.038273253140000005,0.19771147535,0.21826493484999998
1274.0,-0.085828580205,-0.0399965577,0.19431135005,0.21615748335
1275.0,-0.08776208934,-0.04165189932,0.1915021363,0.2147327019
1276.0,-0.088103697355,-0.037966466399999996,0.1945633886,0.21693328979999998
1277.0,-0.09129391071500001,-0.04213866541,0.1915449736,0.2163471392
1278.0,-0.089586045595,-0.043964145705,0.1927991435,0.21710691459999998
1279.0,-0.09006233052,-0.042651225135,0.1915455015,0.2159170624
1280.0,-0.089897880505,-0.041839509045,0.19144152755,0.21560132275
1281.0,-0.09077061358499999,-0.040597231125,0.19198742205000002,0.2162097256
1282.0,-0.09358641433,-0.044975480845,0.1912737727,0.21764466365000001
1283.0,-0.094132629895,-0.048144671089999994,0.18963560075,0.21713016349999997
1284.0,-0.144580145515,-0.029267005236,0.1817266518,0.25030179585
1285.0,-0.04264505531,-0.05804893356,0.1948497393,0.20897763365
1286.0,-0.15556738695,-0.066030990365,0.14443792765,0.22314035855
1287.0,-0.11852992834000001,-0.0391323094,0.16036005865000003,0.20724774535
1288.0,-0.10447455525,-0.042102495465,0.19594482159999999,0.2261864484
1289.0,-0.100589380115,-0.04124505313,0.15556579650000002,0.18990301939999998
1290.0,-0.10911282865,-0.0431967533,0.17115057825,0.20752109185
1291.0,-0.1072135819,-0.038767803850000004,0.17332543420000002,0.2074799417
1292.0,-0.10427300865,-0.037125050735,0.17710771805,0.2088666194
1293.0,-0.10354775860000001,-0.0393479952,0.1721295774,0.20469362815
1294.0,-0.09899738530999999,-0.037628280495,0.16634973785,0.19734652795000002
1295.0,-0.09773353992,-0.03711184571,0.16205503864999998,0.19289057905
1296.0,-0.089068818115,-0.041031820935000005,0.1625070596,0.1898553968
1297.0,-0.08720607813,-0.046062542245000004,0.1606100713,0.18852544205
1298.0,-0.08621140882,-0.049196184945,0.1599535908,0.18825922750000001
1299.0,-0.09174274642,-0.04518261168,0.15939557415,0.1894349158
1300.0,-0.09002700027999999,-0.04738001975,0.16235417330000002,0.19160339110000002
1301.0,-0.092940590595,-0.047483350205,0.1670256325,0.1969564124
1302.0,-0.09056733176000001,-0.043937813490000005,0.1713886261,0.19877563275
1303.0,-0.08862592949,-0.04855627676,0.1730564659,0.20040303835
1304.0,-0.08543124187000001,-0.047149487845,0.17744316615,0.2025126056
1305.0,-0.09895287574,-0.04124974618,0.1745976229,0.20675268019999998
1306.0,-0.091161988245,-0.042520026520000004,0.18161525109999999,0.20792451750000002
1307.0,-0.09725947328000001,-0.033453745795,0.18069086885000002,0.20822988215
1308.0,-0.090856743415,-0.028724412095,0.18705405045,0.20992947865
1309.0,-0.09182657028,-0.025686692445,0.18811047725,0.21090233549999998
1310.0,-0.09624283204,-0.037905960625,0.18161578925,0.20902680355
1311.0,-0.09165934473000001,-0.044225413355,0.18233341720000001,0.2088136284
1312.0,-0.09625225597,-0.048072268095,0.18023730840000002,0.2099205242
1313.0,-0.09543816118500001,-0.050874771075,0.1799634353,0.20996120224999998
1314.0,-0.09641530675,-0.051256644520000005,0.18021311385,0.21071387135
1315.0,-0.096375327375,-0.051693015165,0.1797610586,0.21041590770000002
1316.0,-0.09608372041,-0.05108791971,0.1793579755,0.2097939835
1317.0,-0.09493794842,-0.050640075425,0.1791642803,0.20899429405
1318.0,-0.094273359055,-0.051833775309999996,0.18006447385000002,0.20976380535
1319.0,-0.09236056656,-0.05377364345,0.1800970342,0.20942979765
1320.0,-0.093013101155,-0.0531643648,0.17950185895,0.20904334815
1321.0,-0.09147454102,-0.05590204361,0.17974799530000002,0.20928984395
1322.0,-0.09377474081,-0.053543223705000004,0.18048738260000002,0.21033006375000002
1323.0,-0.09957979892499999,-0.05561952582,0.17661089615,0.2102526415
1324.0,-0.098275737055,-0.054924543665,0.17711058085,0.2098667153
1325.0,-0.099227809605,-0.057169351029999996,0.1759650513,0.20996138045
1326.0,-0.09555860169,-0.060596569855000004,0.17717455110000002,0.2102312477
1327.0,-0.093612994465,-0.058799487319999996,0.1805658481,0.21172192979999999
1328.0,-0.095016199445,-0.05962100105,0.17813811224999998,0.21053090175
1329.0,-0.09745957738,-0.056665365659999994,0.17740659865,0.21021664615000002
1330.0,-0.09996878378,-0.055536898434999996,0.1758743781,0.20979360195000002
1331.0,-0.10039047738500001,-0.0532557588,0.17782190879999998,0.21104066905000002
1332.0,-0.1022707319,-0.052014320729999994,0.1759973471,0.21009900874999998
1333.0,-0.09874232567999999,-0.05396314873,0.17772230960000002,0.21036595889999998
1334.0,-0.09615899399,-0.05321659417,0.17708781820000002,0.2084495301
1335.0,-0.092151927205,-0.050592841895000004,0.1798335623,0.20831007155
1336.0,-0.09244384215000001,-0.05018580587,0.17972046069999997,0.20825032599999999
1337.0,-0.09627481512,-0.05049096853,0.1787996581,0.20927705670000002
1338.0,-0.096751537005,-0.049007247559999995,0.17849307539999998,0.20886724229999998
1339.0,-0.09485263822000001,-0.053174872495,0.1801557588,0.2104420457
1340.0,-0.098540056315,-0.055504352325,0.1753487057,0.20867700465
1341.0,-0.097746439405,-0.05697770026,0.17666635195,0.20979262275
1342.0,-0.09627627365,-0.05717523316,0.17787498759999998,0.21019965540000002
1343.0,-0.09537609091499999,-0.05460084938,0.17931836165,0.2103329264
1344.0,-0.098404599065,-0.055729236269999996,0.1774721992,0.2104711039
1345.0,-0.1040049621,-0.05476829741,0.17435929890000001,0.210291187
1346.0,-0.09367712678,-0.052488530895,0.17909212615,0.2088254332
1347.0,-0.095200575535,-0.05140688442,0.1786658053,0.2088875092
1348.0,-0.09905613002,-0.055984795265,0.1760986763,0.2096780673
1349.0,-0.10332395994999999,-0.05857362889,0.1738244302,0.21052997340000001
1350.0,-0.0961451152,-0.0613097047,0.1769902971,0.210542937
1351.0,-0.08989417168,-0.057188214795,0.17847166525,0.20790648995
1352.0,-0.08078853834,-0.050963387974999996,0.18423498659999998,0.2088335665
1353.0,-0.10937371170500002,-0.046652066505000006,0.1737790454,0.21121611495
1354.0,-0.092014706345,-0.047056341929999995,0.18093326355,0.2086948595
1355.0,-0.095684733245,-0.049183061465,0.17857750865,0.208532314
1356.0,-0.088933412475,-0.04749486577,0.18175847825,0.20789388505
1357.0,-0.094822162335,-0.045530396385,0.1804086769,0.20889511445
1358.0,-0.09735234665,-0.05095329986,0.17784848879999998,0.20914267975
1359.0,-0.097204332395,-0.05386860023,0.17800338185,0.20986473205
1360.0,-0.090692441115,-0.05044842026,0.17629654685,0.20510007145
1361.0,-0.12136507804999999,-0.047319059485,0.1698103453,0.21402130600000002
1362.0,-0.093155594525,-0.045669056525,0.17967916135,0.2076786643
1363.0,-0.10599961125,-0.046783608675,0.17446361240000002,0.20943408515
1364.0,-0.1105645914,-0.047364168695,0.17073211215,0.2088539697
1365.0,-0.1084199056,-0.051235895335000003,0.1719235909,0.20961706325
1366.0,-0.1041402228,-0.049877917955,0.17420829715,0.20901568665
1367.0,-0.100450264825,-0.05176953198,0.1761381026,0.20928101435000002
1368.0,-0.09852147615000001,-0.052041953315,0.17684259419999998,0.20901731315
1369.0,-0.09904617976999999,-0.05528832231,0.17637756389999998,0.20971625755
1370.0,-0.09787928264500001,-0.055450869835,0.17604543475,0.2089214015
1371.0,-0.100741365425,-0.056173901974999996,0.17478606130000002,0.20941651295
1372.0,-0.099806540195,-0.057512625285,0.17553769215,0.20996364039999998
1373.0,-0.09609003390000001,-0.05401747099,0.1792155056,0.21042817530000002
1374.0,-0.093797931065,-0.04740644453,0.18296602655,0.21100289325
1375.0,-0.097906204965,-0.045711050924999996,0.1814854581,0.21122186650000002
1376.0,-0.098168249885,-0.046523255025,0.18031754735,0.2105185531
1377.0,-0.0980078828,-0.051659541744999996,0.18024084645,0.21157887079999999
1378.0,-0.095841971655,-0.05034909551,0.1818816851,0.2116736465
1379.0,-0.09784404691,-0.053800934245,0.17958412495,0.21146879515
1380.0,-0.099047287315,-0.05436163737,0.17871099195,0.2114322665
1381.0,-0.09853179283499999,-0.053280849945,0.1776301333,0.21000428615
1382.0,-0.098539944865,-0.056501027654999994,0.1777581525,0.21095337484999999
1383.0,-0.09550149869999999,-0.053273180729999994,0.18144727405,0.2118744757
1384.0,-0.093334559885,-0.04947023229,0.1819131818,0.21036658614999998
1385.0,-0.095144868785,-0.052119467555,0.1807456465,0.21081085924999998
1386.0,-0.09786827571500001,-0.05220937836,0.18034277005,0.21176498570000002
1387.0,-0.10269728424999999,-0.055105087304999995,0.17582557305000002,0.21094599214999998
1388.0,-0.10039423651000001,-0.05517942144,0.17768213900000002,0.21141362575
1389.0,-0.09952945863000001,-0.05457703721,0.17928578010000001,0.21220359155000001
1390.0,-0.09768241927999999,-0.053576104225000004,0.1786177499,0.21051498605
1391.0,-0.1009349051,-0.052860544795,0.17709965695000002,0.2105877843
1392.0,-0.10317060289999999,-0.05568453448,0.1740377328,0.20985219545
1393.0,-0.1021317632,-0.055926216125,0.1769378079,0.21182107085000002
1394.0,-0.09916507328499999,-0.052411082095,0.17699946355,0.20955131435000002
1395.0,-0.09836271390000001,-0.057161078395,0.17728216219999998,0.21064968444999999
1396.0,-0.09929732693,-0.053773594364999996,0.17673098134999998,0.2097322851
1397.0,-0.09515447242,-0.053190098235,0.18134615980000002,0.21160102165
1398.0,-0.09297975545,-0.052699591525,0.1824278044,0.21145671570000002
1399.0,-0.09841096123000001,-0.055179539605,0.17720687540000002,0.21008922200000002
1400.0,-0.101731212835,-0.057282826905,0.17455580664999998,0.21002869665
1401.0,-0.10064453875000001,-0.05894535141,0.1759181916,0.21108124820000002
1402.0,-0.09610353594,-0.052802173745,0.1790012738,0.20991843575
1403.0,-0.097951003485,-0.051674706594999995,0.1788689598,0.2103912417
1404.0,-0.096343233025,-0.051931370840000005,0.17920494125,0.2099850405
1405.0,-0.099470986255,-0.050967390575,0.17787511765,0.21008260865
1406.0,-0.1020012902,-0.052819489075,0.176668636,0.21072914075
1407.0,-0.09674945786,-0.055812966015,0.17875174,0.21078435655
1408.0,-0.09628483764000001,-0.05663899618,0.17999780999999998,0.21187466555
1409.0,-0.1033320385,-0.057040827525000004,0.1755256227,0.21154322250000002
1410.0,-0.1340917708,-0.0401258933,0.16370743645,0.21766357175
1411.0,-0.081507127025,-0.04810950792,0.1802014052,0.2412323648
1412.0,-0.10713853817999999,-0.065903819535,0.16746980765,0.21166912475
1413.0,-0.10856755453,-0.033216837349,0.18316467025,0.2232564328
1414.0,-0.03926983991,-0.028409251624999996,0.21243223239999998,0.2256721868
1415.0,-0.161591083605,-0.0929246246405,0.24419918470000002,0.31618533645
1416.0,-0.048949296525,0.018789022415,0.108103580535,0.12045962139
1417.0,-0.18408756240000002,-0.10471276942,0.22577139885,0.3107841622
1418.0,-0.066875479275,-0.015581846505,0.1390504568,0.15531751775
1419.0,-0.11457996813999999,-0.05563848466,0.19741356745,0.23509457379999998
1420.0,-0.10736825352000001,-0.054950147585,0.19790086014999997,0.23266617774999998
1421.0,-0.11544678056,-0.044290254515,0.17660674469999998,0.21618300385
1422.0,-0.09622051225,-0.05652296354,0.20617694705,0.23477028584999998
1423.0,-0.07050724303,-0.02569566293,0.1628497204,0.1797687347
1424.0,-0.1332417594,-0.05067403733,0.2091978618,0.2531500936
1425.0,-0.08166827488,-0.030071422554999998,0.17889374255,0.20431934950000002
1426.0,-0.07707649563999999,-0.031445145605,0.1727451294,0.19182704785
1427.0,-0.12194494809499999,-0.0510154793605,0.20988251495,0.2532870016
1428.0,-0.08429118307,-0.036021319504999996,0.17004141195,0.19355252815
1429.0,-0.124452673215,-0.065457038585,0.2135500799,0.2613401651
1430.0,-0.08279882603,-0.040194352675,0.17397548894999998,0.19710234435
1431.0,-0.128139759425,-0.064138803335,0.21159178704999998,0.25845730525
1432.0,-0.10192135343,-0.04883300654,0.19379389084999998,0.22463897900000002
1433.0,-0.090182380085,-0.032934781103,0.16755430659999998,0.19423692345
1434.0,-0.131324091255,-0.08172496771,0.2240281682,0.27390090405
1435.0,-0.054548651765,-0.00551997278,0.1358547509,0.14915285605
1436.0,-0.11911426224999999,-0.080016056485,0.2182513988,0.2617694543
1437.0,-0.06780967304999999,-0.015176770700999999,0.14976552194999998,0.1663456446
1438.0,-0.1328323037,-0.07320703040500001,0.22911827135,0.27483569355000004
1439.0,-0.04070299015,-0.005289424305,0.1281330422,0.13569741354999998
1440.0,-0.13724783435,-0.073622333825,0.23186243694999997,0.2826863488
1441.0,-0.09954316509,-0.051655414590000004,0.1826326766,0.21476250400000002
1442.0,-0.084931775205,-0.0273584545315,0.16283907815,0.18669742935
1443.0,-0.13198415435,-0.0795451857,0.2283485087,0.2759972016
1444.0,-0.05804003781,-0.0115028879485,0.14187941115,0.15508311870000002
1445.0,-0.08402625110999999,-0.028021106675,0.16538282877,0.20253278588499998
1446.0,-0.12969745082,-0.06963469058999999,0.23076851855000002,0.27582443655
1447.0,-0.12202609479500001,-0.05986718363,0.1851591895,0.23071316670000003
1448.0,-0.07257962454,-0.01869787006,0.14876576905,0.16661236964999998
1449.0,-0.138082267125,-0.08235564072,0.232127887,0.2834569253
1450.0,-0.032836050765,0.013497101029999996,0.11024459936,0.137988068495
1451.0,-0.12076537444,-0.06640643561,0.21258369565000002,0.260322355
1452.0,-0.130612565875,-0.080567801235,0.2127958603,0.263893991
1453.0,-0.05671960039,-0.010688462304000002,0.1344375094,0.1480525003
1454.0,-0.113561338765,-0.05754855977,0.20800304965,0.24436622070000003
1455.0,-0.04665398541,0.0017294781600000007,0.121505092295,0.1331178878
1456.0,-0.10712763110500001,-0.0550290777875,0.20074694415,0.2392779263
1457.0,-0.1198786138,-0.07446591554500001,0.20390053200000002,0.25018435819999996
1458.0,-0.075352662165,-0.023129875515000002,0.1528952029,0.17204633155
1459.0,-0.13392270455,-0.08069666557,0.22460502524999998,0.27504740694999996
1460.0,-0.045947338049999994,0.00047726948000000047,0.13185800785000001,0.1435184088
1461.0,-0.13614430830000002,-0.08193524073,0.2331953907,0.28218986589999995
1462.0,-0.093258215105,-0.027849865932000003,0.159212558845,0.1891869278
1463.0,-0.08630501654,-0.041154826445,0.1741449871,0.20123080915000002
1464.0,-0.09382603624,-0.048814434095,0.1890047283,0.21697180245
1465.0,-0.10961407749499999,-0.049469356815000004,0.1736299768,0.21157711285000003
1466.0,-0.097561441045,-0.051624142925000005,0.1773426138,0.20895594735
1467.0,-0.10007949857000001,-0.05763767447,0.17503543124999998,0.2097310758
1468.0,-0.1073921432,-0.051648314274999996,0.17564597015,0.21226527285000002
1469.0,-0.10766663774999999,-0.055478597059999996,0.17331105475,0.21144512675
1470.0,-0.090564686255,-0.052688048205000004,0.18210079265,0.21024001339999998
1471.0,-0.10550400711499999,-0.061165414175,0.174297972,0.2142242169
1472.0,-0.10414604155500001,-0.05245515089,0.17654636175,0.21295564205
1473.0,-0.09838189843,-0.04892647603,0.17869454075,0.2098416609
1474.0,-0.1022968431,-0.05374995869,0.1764939592,0.2109669094
1475.0,-0.10601435745000001,-0.055846851680000004,0.17447038165,0.21165972724999998
1476.0,-0.103239989,-0.054930446915,0.17476494469999998,0.21029946630000002
1477.0,-0.10281232300000001,-0.057991632769999996,0.176408729,0.21226134415
1478.0,-0.10074187505,-0.055331429795,0.1777006957,0.2116708541
1479.0,-0.10239854993,-0.051365865845,0.17544247515,0.20970885645
1480.0,-0.1052129723,-0.051972572765,0.1747555354,0.2105117034
1481.0,-0.10994722405,-0.04735058984,0.17295269135000002,0.2103412214
1482.0,-0.10270579724500001,-0.051588539579999995,0.1768904792,0.21098336385
1483.0,-0.1004196222,-0.052598165520000004,0.17744611745,0.2105672077
1484.0,-0.09652199046000001,-0.053863913685,0.18024883295,0.21144515005
1485.0,-0.09288957454999999,-0.056115789289999995,0.18045001705000002,0.2105856491
1486.0,-0.09413924495,-0.058712341769999996,0.1789140568,0.21052940575
1487.0,-0.09527097349,-0.0588391996,0.1789071032,0.2110654597
1488.0,-0.093686445375,-0.05324446796,0.18135629495,0.21095609785
1489.0,-0.09328906492,-0.051348744175,0.18257700205,0.21136323305
1490.0,-0.09484128346500001,-0.05032153735,0.18165314389999998,0.21102972515
1491.0,-0.09280775414,-0.049650528390000004,0.18206779295,0.21031222015
1492.0,-0.099335752635,-0.047490115485,0.18005882135,0.21106473985000002
1493.0,-0.098702892665,-0.053965102880000004,0.1775844097,0.2102170183
1494.0,-0.095656696625,-0.05151992792,0.1816243151,0.21165714435
1495.0,-0.0935291666,-0.05433129542,0.1808694782,0.2107447812
1496.0,-0.09534349139000001,-0.05587174779,0.1797026831,0.21096947575
1497.0,-0.093992176035,-0.05550426756,0.1797275782,0.21029103135
1498.0,-0.09550332362,-0.055582656785,0.1793195862,0.210636303
1499.0,-0.095553754815,-0.058536681925,0.17870943615,0.2109440806
1500.0,-0.09137991311,-0.05195733382,0.18290031245,0.21096375925
1501.0,-0.093836643505,-0.04892188107,0.18249297135,0.21096059714999998
1502.0,-0.090454362685,-0.04804313561,0.1841330604,0.2107024468
1503.0,-0.09325318098499999,-0.052393073695,0.1813220788,0.2105356489
1504.0,-0.09270555797499999,-0.05438246458,0.18178378245,0.2111854738
1505.0,-0.092075971765,-0.05106232961,0.1821947552,0.21042900009999999
1506.0,-0.09516873814,-0.051944815925,0.1806678318,0.21070662315
1507.0,-0.09740439176499999,-0.054638869585,0.17891818110000002,0.21091858375
1508.0,-0.09743083112,-0.05456004328,0.1792808158,0.2112166592
1509.0,-0.09559923002,-0.058302377795,0.17933432059999999,0.21142645435000001
1510.0,-0.093357520295,-0.056682005825,0.1810848641,0.211509459
1511.0,-0.093386227085,-0.053697876395,0.18207971509999998,0.2115903117
1512.0,-0.096167984465,-0.05363922649,0.18066037645,0.21157424015
1513.0,-0.10055147454999999,-0.054222559355,0.1786231102,0.21203054799999999
1514.0,-0.09678464874500001,-0.05644147215,0.17807804714999997,0.2103941349
1515.0,-0.09600028963,-0.0562445176,0.18055046195,0.21208725455
1516.0,-0.114221265865,-0.04748911568,0.16951435425,0.21128134035
1517.0,-0.09959517409,-0.047117743805,0.18117618285,0.21303999405000001
1518.0,-0.1172217263,-0.041392861850000004,0.16683567135,0.2081377586
1519.0,-0.10596437135,-0.04696240733,0.17284138835,0.2081418418
1520.0,-0.10743803504999999,-0.045262381559999995,0.1738570531,0.2093317029
1521.0,-0.10775137025,-0.04490298888,0.17016965065,0.2063710646
1522.0,-0.10847919724999999,-0.05366844356,0.1680901426,0.20714777555000002
1523.0,-0.10324840285,-0.057295424595000005,0.17024179215000002,0.2072035446
1524.0,-0.103471061,-0.054441504665,0.1717636942,0.20778491575
1525.0,-0.10245978525,-0.053906639505,0.17293544905000002,0.20811604725
1526.0,-0.10451835295,-0.053733106645,0.17204625265,0.2083616818
1527.0,-0.12011754834999999,-0.053765494855,0.16868641225,0.2142023247
1528.0,-0.132909724745,-0.0086328527355,0.1608521113,0.21241615884999998
1529.0,-0.1548950808,-0.028422491255,0.14006946825,0.21122048295
1530.0,-0.192394277275,-0.1922482653,0.07813494654400001,0.3079822255
1531.0,-1.28801736745,-1.04776783175,-1.0498659589500001,2.6527655975
1532.0,-0.308855605,-0.22725768089999998,0.35784198935,0.65889577565
1533.0,0.000823639305000002,0.0577531869225,0.2378324496,0.25884336125
1534.0,-0.0166364123747,0.09133739467999999,0.16983650825,0.19447333644999998
1535.0,-0.010385633161,0.10332023055,0.16898319325,0.19836894845
1536.0,-0.008551606319,0.102800580795,0.16593906954999998,0.1954086482
1537.0,-0.0048946857195000006,0.09681955931,0.1658265924,0.1921119056
1538.0,-0.0012750343885,0.095415835825,0.17060868595,0.19550072585
1539.0,-0.002036364441,0.094917161875,0.17219780745000002,0.19663557885
1540.0,-0.0011216662728,0.096453296365,0.1692062348,0.19478008465000002
1541.0,-0.0016421954545,0.09496417541,0.1740966307,0.1983204025
1542.0,-0.0016702188534500001,0.09605935004999999,0.17091951535,0.19607241805
1543.0,0.00095236974355,0.094741648245,0.1713312441,0.19579269755
1544.0,-0.0033749407315,0.098525751045,0.1634959875,0.1913355409
1545.0,-0.002815135882,0.099404103555,0.16147410485,0.18963944859999998
1546.0,-0.00045174799445,0.09722331361,0.16557947945,0.19205074525
1547.0,-0.00047592587175,0.09359093983,0.16505231105,0.18974558815
1548.0,0.0017116963064,0.09379287402,0.1709640999,0.19501918089999998
1549.0,0.0017488945370000002,0.092773690285,0.1713652898,0.1948855081
1550.0,-0.02454682557735,0.10421480074,0.18810283945,0.21767699865
1551.0,-0.012365775200000005,0.03820513367,0.13033690465,0.257865587
1552.0,0.047488434574999995,0.11208241995999998,0.20512214285,0.2549012504
1553.0,0.037623011875,0.129809970425,0.22084586435,0.27067830385
1554.0,-0.055956521595,0.13595008535,0.110510411315,0.20912200575
1555.0,-0.002344385564999999,0.1081026065,0.1580812921,0.19380061669999998
1556.0,-0.033985375750000005,0.068208922625,0.20257304665,0.21943521054999998
1557.0,-0.0024427899285000003,0.09623257696500001,0.1848136508,0.20855583195
1558.0,-3.831355999999592e-06,0.08664402237999999,0.18940702375000001,0.20865037995
1559.0,0.2977646074785,-0.060972889415,0.223501395,0.44317116865000006
1560.0,0.0758433285,-0.32320635735000003,0.092582554136,0.64115735465
1561.0,-0.32517562395,-0.4705465439,0.20382073220000002,0.72744286905
1562.0,0.018723380180000002,-0.325138507815,0.05674068019,0.36445569824999996
1563.0,-0.045867329925000005,0.07217718285,0.28301747089999996,0.35566371495
1564.0,-0.0528787412765,-0.32108382292,0.20634930094999998,0.47204746505
1565.0,-0.06649901519,-0.056790755,0.2261249232,0.24887242415
1566.0,-0.068884100555,-0.043460892205000004,0.1902885819,0.20875293155
1567.0,-0.08210798428,-0.039589969505,0.2058003907,0.22527311225000002
1568.0,-0.08028618873,-0.03583319603,0.2095290441,0.227227442
1569.0,-0.07291881290999999,-0.04298363295,0.21109249985,0.22744630525
1570.0,-0.072186518935,-0.04052662215,0.2115367815,0.22716925365
1571.0,-0.06314947321,-0.040566498605,0.21502257595000002,0.22775436755
1572.0,-0.0645478133,-0.04019091678,0.21501866790000002,0.2280922007
1573.0,-0.07287828357500001,-0.033438907785,0.2150114148,0.2294853347
1574.0,-0.06848941171,-0.035762951715,0.2145233658,0.22801863249999998
1575.0,-0.06540215595500001,-0.042585201955,0.21479985475000002,0.22854645569999998
1576.0,-0.07276578598,-0.0418387937,0.21303962915,0.2290344708
1577.0,-0.070972436385,-0.034478630819999995,0.2121618024,0.2266466313
1578.0,-0.07485922367,-0.035649515685,0.21302514555000002,0.22862094165000002
1579.0,-0.07193935323,-0.03171913072,0.2140372459,0.22804648854999998
1580.0,-0.065348087,-0.029044137065,0.2169208248,0.2284222112
1581.0,-0.066445836235,-0.030549446375,0.2173048488,0.22928474805
1582.0,-0.06436492087,-0.038576407305000004,0.21552083665,0.22823216964999998
1583.0,-0.06700248351499999,-0.038572042720000005,0.2076133361,0.2215451947
1584.0,-0.06475589088,-0.043232000125,0.19885126785,0.2135605764
1585.0,-0.056843088114999996,-0.04027970588,0.19590021205,0.20792504285000002
1586.0,-0.057461578570000005,-0.03984197753,0.1922884116,0.2046483174
1587.0,-0.05773490667,-0.0455335211,0.1907268241,0.20441266175
1588.0,-0.057277904404999996,-0.047056757635,0.19126782879999998,0.2051442007
1589.0,-0.063690107715,-0.04707908975,0.18920919125000002,0.20514264295
1590.0,-0.063546790945,-0.046719703005,0.1901645594,0.20587718265
1591.0,-0.062042798315,-0.04371416474,0.19246651635,0.20692508240000002
1592.0,-0.06296606385,-0.044719820470000005,0.19311582065,0.20799510724999998
1593.0,-0.06046709091,-0.04730369131,0.19426761474999998,0.20888923915000002
1594.0,-0.065352189925,-0.038707263045,0.19627749535,0.21046251259999998
1595.0,-0.0659622178,-0.037786421535,0.19668748705,0.21087419125
1596.0,-0.057801878109999996,-0.039804782819999995,0.2008114924,0.21272643025
1597.0,-0.065453330035,-0.039760990415,0.19967272645,0.21385819369999998
1598.0,-0.060461226525,-0.04429221278,0.20238770745,0.21592172355
1599.0,-0.061971950385,-0.040623904885,0.20673937185,0.21968233565
1600.0,-0.061711825430000006,-0.042958020230000005,0.2101018578,0.22316115279999998
1601.0,-0.065362976165,-0.045147153045,0.20997945340000002,0.2245052478
1602.0,-0.06844202867,-0.043477873954999996,0.21140247675,0.22642163325
1603.0,-0.068523355895,-0.051257491115,0.21205896800000001,0.22871458745
1604.0,-0.06509485806,-0.052545952009999994,0.2143137847,0.230108727
1605.0,-0.07521283867,-0.04104651324,0.21297132824999998,0.22956805549999998
1606.0,-0.083638105645,-0.03498146144,0.21312457280000002,0.2316257434
1607.0,-0.086493061495,-0.033592466720000005,0.21221513425,0.2316140161
1608.0,-0.08458375372,-0.036481663585000004,0.2121341154,0.23129707030000002
1609.0,-0.076524851815,-0.036940825365,0.2150416223,0.23123554289999998
1610.0,-0.074556589905,-0.033796228469999995,0.21450883635,0.22960286624999998
1611.0,-0.06708460013,-0.039613124104999994,0.2174386548,0.23099835424999998
1612.0,-0.061573857125000006,-0.043659483705,0.2185750187,0.23125053655
1613.0,-0.06428022266,-0.04724199641,0.21839977924999998,0.23253150275
1614.0,-0.071320443855,-0.04617922326,0.2139973719,0.23027007519999998
1615.0,-0.07687987467,-0.04796060086,0.21385661085000002,0.23227423775
1616.0,-0.07352311739,-0.054250927605,0.2124694956,0.231287249
1617.0,-0.069915708245,-0.052113308895,0.2158360775,0.2328112924
1618.0,-0.076290675905,-0.046573042895,0.21286134615,0.23087181785
1619.0,-0.07232633643,-0.052897910214999996,0.21408499975,0.23209572025
1620.0,-0.06800254645,-0.047178029455,0.2168919573,0.23215809804999998
1621.0,-0.05784353985,-0.047430063875,0.21968871535,0.23229832535
1622.0,-0.044849411135,-0.035554330195,0.21835555569999998,0.22587296405
1623.0,-0.09240070638499999,-0.051447331505,0.2173853741,0.24556920005
1624.0,-0.09819350816,-0.04525157583,0.20519859725,0.23204375555
1625.0,-0.08263176749500001,-0.045415286035,0.20607951705,0.22664354085
1626.0,-0.07963971793499999,-0.046593518925,0.20824944975,0.2277895255
1627.0,-0.07904718688000001,-0.048226822195000005,0.20847220184999998,0.22812543115
1628.0,-0.085285075315,-0.049510545665,0.2060996791,0.22848282165
1629.0,-0.080484084905,-0.05414751337,0.20684997714999998,0.22846689725
1630.0,-0.07990673943,-0.05008605917,0.20810913315000001,0.22852194660000003
1631.0,-0.085220429465,-0.04223381003,0.20598798135000002,0.22690029379999999
1632.0,-0.085178365025,-0.046054588,0.20625301735,0.22785350529999998
1633.0,-0.081761625945,-0.042521524625,0.20776776795000002,0.22729005419999998
1634.0,-0.08343265049,-0.045851071534999996,0.2066417659,0.22754293845
1635.0,-0.07649467837,-0.05343932106,0.2090638222,0.2289429593
1636.0,-0.075329039865,-0.050235821185,0.2089242302,0.2277282843
1637.0,-0.077459764015,-0.049358550375,0.207944275,0.22732817635000002
1638.0,-0.07771491581000001,-0.0489367254,0.20888987115000002,0.22820647595
1639.0,-0.0792791061,-0.05063189144,0.2071594584,0.22752808759999998
1640.0,-0.080773397455,-0.052550879504999995,0.20700190400000001,0.2283460226
1641.0,-0.07578630579500001,-0.053545144355000004,0.208529893,0.22824576345
1642.0,-0.08058070922499999,-0.04784318364,0.20574493785,0.22610346635
1643.0,-0.07667677909500001,-0.05187580416,0.206669676,0.22645754505
1644.0,-0.080969154835,-0.048506286940000004,0.20592656455,0.2265539091
1645.0,-0.08180688466,-0.046284116085,0.20550552495000002,0.225994112
1646.0,-0.06791987735999999,-0.054020811975,0.2089550538,0.22637789285
1647.0,-0.08238399605499999,-0.050833574225,0.2051765534,0.22696704680000002
1648.0,-0.108314573675,-0.03278153173185,0.1771143023,0.23127051595
1649.0,-0.012953447115000002,-0.067385607005,0.271418826,0.2855749017
1650.0,-0.08148607979,-0.040437734759999996,0.203199818,0.22368810725
1651.0,-0.126723541095,-0.0160941063525,0.1905797991,0.23826040734999998
1652.0,-0.023001448325,0.11460528654999999,0.35626851655,0.5877639554
1653.0,-0.7480777849,0.10142776825000002,0.48460370445,1.0115226614500001
1654.0,-0.40341609671,-0.9392907509,-0.5596771012,1.521847873
1655.0,-0.028258075764999994,0.058936577005,0.09880137824,0.19176472355000002
1656.0,0.004341703089999999,0.014548583635,0.2038958943,0.2081844645
1657.0,-0.042833971006,0.044422393755,0.2527846155,0.30983776124999995
1658.0,-0.1769831213,0.2685428566,0.24399066445,0.40692259394999997
1659.0,0.009109619200000002,-0.16132280125,-0.15006574026,0.26946957255
1660.0,-0.31873886403499996,-0.12048502655499999,0.26839865535,0.56166612895
1661.0,0.006511304949999991,-0.4134620415,0.24811008483999997,0.6716026747999999
1662.0,0.07198962570499999,-0.4878364699,0.1624699533,0.5590778958
1663.0,-0.074194737535,-0.07921655999,0.19797089085,0.22618208945
1664.0,-0.05802303029,-0.05564886832,0.2073667751,0.2224763331
1665.0,-0.069101071805,-0.056439158705,0.20312292975000001,0.22195942715
1666.0,-0.07332704409999999,-0.053597809839999996,0.2028515387,0.222264619
1667.0,-0.07213559527499999,-0.05351438478,0.20208033955,0.22114320425
1668.0,-0.07581884358999999,-0.047699224755,0.2019181609,0.22089514915
1669.0,-0.077566814805,-0.050728112935,0.20118638445,0.2215148278
1670.0,-0.07409380914,-0.050402049005000005,0.202758455,0.22168403875
1671.0,-0.08025814422,-0.04574655543,0.2003648289,0.2206422106
1672.0,-0.082775583665,-0.043257881570000004,0.20133847265,0.2219492575
1673.0,-0.08033469429000001,-0.044098604905,0.2017211739,0.22158189605
1674.0,-0.06041356592,-0.053205403469999996,0.20816578005,0.2235474894
1675.0,-0.035241471144999995,-0.04479145828,0.2173920154,0.2249480905
1676.0,-0.037192071715,-0.050149868075,0.2170754505,0.22588272065
1677.0,-0.06342974547500001,-0.05149690764,0.2080139836,0.2235705669
1678.0,-0.069933545665,-0.058576837945,0.20240175405,0.2220138325
1679.0,-0.07044383557,-0.055056717039999994,0.20230427405,0.22118728365
1680.0,-0.06911759963,-0.057628968404999995,0.20369511675000002,0.2226997806
1681.0,-0.07143806261999999,-0.051659236989999996,0.20513501925,0.2233107735
1682.0,-0.0752574054,-0.05078197472,0.20440502770000002,0.22367054460000002
1683.0,-0.074946866265,-0.05547798407,0.20240245425,0.2228516114
1684.0,-0.07680520936,-0.05504609668,0.20307281285,0.22399852245000001
1685.0,-0.07789154646,-0.05600310971,0.20157501735,0.22324578560000002
1686.0,-0.076639155455,-0.057445133395,0.20023195985,0.2219884564
1687.0,-0.08250937850500001,-0.055962766829999996,0.1989630215,0.2225533101
1688.0,-0.07469419204,-0.059112554415000004,0.2012827918,0.2226859432
1689.0,-0.077696563705,-0.05411839296,0.20204029385,0.22312958454999998
1690.0,-0.080123258045,-0.0543488628,0.20146328200000002,0.2235252479
1691.0,-0.08236392165,-0.056119511590000004,0.2006507381,0.22404078665
1692.0,-0.083918159625,-0.056691711049999996,0.19790021245,0.2223262359
1693.0,-0.08186918225,-0.061244011604999996,0.19721103175,0.22214347525
1694.0,-0.07880609219,-0.057026019465,0.2001122695,0.2225095208
1695.0,-0.07885993699999999,-0.058165520144999996,0.19962506255,0.22239107735
1696.0,-0.079301784115,-0.057455137855000005,0.19900946465000002,0.22180117465
1697.0,-0.083074719825,-0.053036389564999994,0.19825155925,0.221403988
