,Time (s),Acceleration x (m/s^2),Acceleration y (m/s^2),Acceleration z (m/s^2),Absolute acceleration (m/s^2),Sound pressure level (dB),Attitude x (m/s^2),Attitude y (m/s^2),Attitude z (m/s^2),Absolute Attitude (m/s^2),Tilt up/down (deg)_x,Tilt left/right (deg)_x,Left Pupil X,Left Pupil Y,Right Pupil X,Right Pupil Y,Blinking,Looking Center,Looking Left,Looking Right,Gyroscope x (rad/s),Gyroscope y (rad/s),Gyroscope z (rad/s),Absolute (rad/s),Linear Acceleration x (m/s^2),Linear Acceleration y (m/s^2),Linear Acceleration z (m/s^2),Absolute Linear acceleration (m/s^2),Event,PositionX,PositionY,Inclination (deg),Rotation (deg),Tilt up/down (deg)_y,Tilt left/right (deg)_y,Tilt up/down (deg),Tilt left/right (deg),isDistracted
0,0.0,-1.228126866,1.037803415,9.731263733,9.863205633,-72.21046941,-1.228126866,1.037803415,9.731263733,9.863205633,6.087375192,-7.192943324,-1.0,-1.0,-1.0,-1.0,10.0,10.0,10.0,10.0,0.0001024125108,-7.547232627e-05,0.0001382329591,0.0001878636351,-0.005495664462,0.005640804723,0.0524171848,0.05300549281,1.0,817.0,765.0,9.382212869,-49.80120444,139.8012044,97.19294332,83.9126248,-49.80120444,0
1,1.0,-1.2432880985,1.0725959955,9.7289039345,9.866588876,-65.53690507,-1.2432880985,1.0725959955,9.7289039345,9.866588876,6.2914108495,-7.282557434,297.0,287.0,349.8333333333333,281.5,20.0,20.0,20.0,20.0,0.0023450893236,0.0064613236105,0.021559380719,0.0237602163485,-0.012280812445,0.0168898486599999,0.0540035538099999,0.0642152733699999,24.0,966.1666666666666,519.4166666666666,9.581425108,-49.23378018,139.23378015,97.28255743,83.70858914499999,-49.23378018,0
2,2.0,-1.294634265,1.039839114,9.7247361305,9.8655256555,-68.122786235,-1.294634265,1.039839114,9.7247361305,9.8655256555,6.103297676,-7.583083546499999,300.0,267.7142857142857,361.0,261.35714285714283,19.0,19.0,19.0,19.0,-0.0089712446755,-0.00104394111,0.00730241379,0.029945327955,0.0018246981675,-0.0077971682,0.057485169455,0.06152215789,14.0,846.4285714285714,479.8571428571428,9.690280016,-51.222103595,141.2221036,97.58308354,83.896702315,-51.222103595,0
3,3.0,-1.2813530595,1.00258423305,9.7320914235,9.867162019,-68.512381345,-1.2813530595,1.00258423305,9.7320914235,9.867162019,5.8817566825,-7.50057822,310.2352941176471,278.2352941176471,380.2352941176471,271.7647058823529,19.0,19.0,19.0,19.0,-0.00102399365865,0.003812252963,-0.00364482032345,0.0063042264665,-0.0076215718735,0.000904410199,0.056906295105,0.05789047916,18.0,655.8888888888889,374.55555555555554,9.4910643505,-51.956885674999995,141.95688565,97.500578215,84.118243315,-51.956885674999995,0
4,4.0,-1.2725170225000002,0.99423541795,9.7314207595,9.864503631,-71.848167845,-1.2725170225000002,0.99423541795,9.7314207595,9.864503631,5.8335300725,-7.449947782,324.84615384615387,275.3076923076923,394.0769230769231,269.0769230769231,18.0,18.0,18.0,18.0,0.0010639142345,-0.0047213735625,-0.004676117548,0.00703665342,-0.008336981572,0.0007128665925,0.053832304915,0.054539563395,27.0,631.1851851851852,314.22222222222223,9.422066629,-51.998259925,141.99825994999998,97.44994778,84.16646992,-51.998259925,0
5,5.0,-1.2457154035,0.99936005535,9.734537807,9.864672189,-75.49586049499999,-1.2457154035,0.99936005535,9.734537807,9.864672189,5.861522819499999,-7.292428529,328.8888888888889,272.55555555555554,396.94444444444446,266.72222222222223,19.0,19.0,19.0,19.0,0.0003718301818,-0.0013011374728,-0.0010261267845,0.00171282928695,-0.0058499171235,0.00246860631,0.0543907484049999,0.054775694385,0.0,0.0,0.0,9.316887037,-51.26205938,141.2620594,97.292428525,84.13847717499999,-51.26205938,0
6,6.0,-1.2429828509999998,0.9956002269,9.7365204485,9.865903859,-75.80735788000001,-1.2429828509999998,0.9956002269,9.7365204485,9.865903859,5.8384424015,-7.275137231,312.3157894736842,271.05263157894734,381.5263157894737,265.2105263157895,19.0,19.0,19.0,19.0,-3.847000694e-05,-0.0005015309206,-0.0010125271989,0.0011401297789,-0.009892826773,-0.001009714539725,0.055376141825,0.05627027345,2.0,680.0,319.5,9.2893251095,-51.306063025,141.30606304999998,97.27513723,84.161557595,-51.306063025,0
7,7.0,-1.241973186,0.9942398206,9.7354961085,9.864629019,-74.91231977,-1.241973186,0.9942398206,9.7354961085,9.864629019,5.8311292525,-7.270047523500001,314.2,269.05,382.65,263.9,20.0,20.0,20.0,20.0,-0.0001850881244,-0.0001547009395,-0.001282812313,0.0034950768114999,-0.0101825892709999,-0.00104964113425,0.054425780105,0.05549929944,44.0,720.6590909090909,599.1136363636364,9.2808913955,-51.321597725,141.32159769999998,97.27004752,84.16887074499999,-51.321597725,0
8,8.0,-1.2400668555,0.9938068973,9.7371162685,9.865944783,-73.468797665,-1.2400668555,0.9938068973,9.7371162685,9.865944783,5.8276443265,-7.257811975499999,318.95,270.15,386.9,265.75,20.0,20.0,20.0,20.0,4.836150424999997e-06,7.380650609999995e-05,-0.0003037681169,0.0010772586784999,-0.0099856305405,-0.00080366253,0.055212815335,0.056203830765,22.0,892.5454545454545,1068.909090909091,9.2693210735,-51.290909485,141.29090945000002,97.25781197,84.17235567,-51.290909485,0
9,9.0,-1.2356348955,0.9939463133,9.738096583,9.8663703895,-75.269500445,-1.2356348955,0.9939463133,9.738096583,9.8663703895,5.8278767264999995,-7.231428284,310.0,277.1764705882353,379.0,270.94117647058823,20.0,20.0,20.0,20.0,0.0001798098536849,-9.349882189999998e-05,1.2637264400000017e-05,0.0008264335715499,-0.0073828256155,-0.0002085392264999,0.056311982955,0.05693901655,1.0,901.0,1065.0,9.249091303,-51.18692626,141.18692625,97.231428275,84.17212327,-51.18692626,0
10,10.0,-1.233750579,0.9957616559,9.734031507,9.862304602,-60.93581169,-1.233750579,0.9957616559,9.734031507,9.862304602,5.84086557,-7.2235005635,304.65,272.95,373.1,266.75,20.0,20.0,20.0,20.0,-0.00027067919385,9.632239335e-05,-6.182556604999999e-05,0.000825847522,-0.005783084738,0.0012481591213,0.0522614447,0.052599139265,33.0,681.2424242424242,1075.2727272727273,9.250985327,-51.092960855,141.09296085,97.22350056,84.159134425,-51.092960855,0
11,11.0,-1.2345944125,0.99319199955,9.7380657645,9.8661335095,-74.887466175,-1.2345944125,0.99319199955,9.7380657645,9.8661335095,5.8235016645,-7.2254255605,303.85714285714283,275.2857142857143,372.7857142857143,268.2857142857143,17.0,17.0,17.0,17.0,-8.742654849999999e-05,-0.00020337410675,0.0003382226968,0.0008595703308999,-0.0072279166779999,0.0013311480225,0.05562779567,0.0562254379249999,24.0,673.2083333333334,1065.6666666666667,9.241759688999998,-51.184538205,141.18453820000002,97.22542556,84.17649832999999,-51.184538205,0
12,12.0,-1.2304691675,0.9880967129,9.7375756075,9.8646232255,-76.31485164,-1.2304691675,0.9880967129,9.7375756075,9.8646232255,5.794115295,-7.201895501,305.10526315789474,275.1578947368421,373.89473684210526,268.57894736842104,19.0,19.0,19.0,19.0,0.000296353533685,0.00026534522615,-0.0003135707868649,0.00076253551985,-0.0049651610215,-0.0040923451347,0.055315795125,0.0558998053299999,20.0,1111.35,936.0,9.2055034485,-51.234880395000005,141.2348804,97.2018955,84.2058847,-51.234880395000005,0
13,13.0,-1.231713638,0.99178022945,9.7383768825,9.8659380415,-73.207712595,-1.231713638,0.99178022945,9.7383768825,9.8659380415,5.815093757,-7.2085162545,303.85714285714283,274.14285714285717,373.0,267.57142857142856,18.0,18.0,18.0,18.0,0.00021625731335,-0.00014965924065,-0.0001991574616,0.0006197847001999,-0.005905893465,-0.0002292739119999,0.055913930885,0.05625524573,48.0,1050.7916666666667,1069.3541666666667,9.2235179695,-51.158830345,141.15883035000002,97.20851625,84.18490624,-51.158830345,0
14,14.0,-1.228231174,0.9911066302,9.738561792,9.8656186535,-75.01901297,-1.228231174,0.9911066302,9.738561792,9.8656186535,5.8110626765,-7.188213878,300.2,273.4,369.6,266.6,20.0,20.0,20.0,20.0,-0.0001454696187,-2.880708889999999e-05,-0.000325320913975,0.0009940006735,-0.0063558596395,0.00010926482635,0.055385147685,0.055775067545,13.0,910.4615384615385,1065.3076923076924,9.2053789785,-51.0986259,141.0986259,97.188213875,84.18893732000001,-51.0986259,0
15,15.0,-1.2352738815,0.9894086905,9.7373187885,9.8651031205,-74.619784415,-1.2352738815,0.9894086905,9.7373187885,9.8651031205,5.8019092785,-7.229906075000001,301.875,272.625,369.875,265.625,20.0,20.0,20.0,20.0,0.0002694239671999,-0.0008495340187499,0.0006344729087,0.0020223272545,-0.0058045338445,-0.0002138468645,0.05523527552,0.05567713397,27.0,908.2962962962964,1025.6296296296296,9.2319925665,-51.30640655,141.30640655000002,97.22990607,84.19809072000001,-51.30640655,0
16,16.0,-1.213009886,0.994517185,9.7404857325,9.8659797235,-73.93098033999999,-1.213009886,0.994517185,9.7404857325,9.8659797235,5.8297769095,-7.0986553885,301.1666666666667,269.6666666666667,370.8333333333333,262.8333333333333,19.0,19.0,19.0,19.0,0.0005382050157,-0.0018678767405,-0.00243658564,0.0033132103474999,-0.0051168561395,-0.000264972023,0.05608274344,0.056374198075,1.0,922.0,992.0,9.14829876,-50.65238416,140.65238415,97.09865538,84.170223085,-50.65238416,0
17,17.0,-1.21137505,0.99322868795,9.741609865,9.866757897,-75.410656965,-1.21137505,0.99322868795,9.741609865,9.866757897,5.821607751,-7.088378017,298.3333333333333,268.6666666666667,366.0,262.0,18.0,18.0,18.0,18.0,-0.0003142597829,0.00056645570921,-0.0001426305024,0.0014632545415,-0.0070527538745,0.0002645793425,0.0564728272499999,0.05697461696,12.0,1028.8333333333333,734.8333333333334,9.1352900945,-50.65116627,140.65116625,97.08837801,84.178392245,-50.65116627,0
18,18.0,-1.2103301645,0.9911917473,9.7417507485,9.866563738,-75.00176089,-1.2103301645,0.9911917473,9.7417507485,9.866563738,5.8096681905,-7.0822247535,-1.0,-1.0,-1.0,-1.0,16.0,16.0,16.0,16.0,-0.0002475655706499,-0.00098207950895,0.0003153762652129,0.0011240081308,-0.0061018919905,-0.0002023416077999,0.0566216790149999,0.05695895409,20.0,1062.75,666.4,9.1231022195,-50.684368735,140.68436874999998,97.08222475,84.190331805,-50.684368735,0
19,19.0,-1.206152088,0.98804681665,9.7415027345,9.8654914355,-68.882569785,-1.206152088,0.98804681665,9.7415027345,9.8654914355,5.791507552000001,-7.058202576999999,-1.0,-1.0,-1.0,-1.0,19.0,19.0,19.0,19.0,-0.0003974849961,-0.00045142441465,0.00053985590808,0.00157826645575,-0.004338050009,-0.0024035875654999,0.055983380905,0.0562031527,22.0,1058.6818181818182,517.5,9.093367032,-50.67661566,140.67661564999997,97.058202575,84.20849244,-50.67661566,0
20,20.0,-1.198479807,0.98657781265,9.742487452,9.86538161,-74.87478999999999,-1.198479807,0.98657781265,9.742487452,9.86538161,5.7823739540000005,-7.0130517175,292.0,278.0,361.0,272.0,18.0,18.0,18.0,18.0,8.632567274999999e-05,-0.000378486443535,0.000288261929245,0.00084578620085,-0.0045128724415,0.0007564261989999,0.055483679,0.0557480571,0.0,0.0,0.0,9.053112853,-50.539085555,140.53908554999998,97.01305171,84.21762604,-50.539085555,0
21,21.0,-1.202643208,0.9895011453,9.743212415,9.8668981985,-72.76608341,-1.202643208,0.9895011453,9.743212415,9.8668981985,5.79896712,-7.036658534,-1.0,-1.0,-1.0,-1.0,20.0,20.0,20.0,20.0,0.00087456069135,0.00083037192485,-0.0010750762111,0.002639292708,-0.005205374816,-0.0004329483408499,0.0568016815349999,0.057085109325,0.0,0.0,0.0,9.081545344,-50.553338194999995,140.55333815,97.03665853,84.201032875,-50.553338194999995,0
22,22.0,-1.1992414585,0.9912313708,9.742323088,9.8657788445,-75.25018598,-1.1992414585,0.9912313708,9.742323088,9.8657788445,5.829606271,-7.025250883,284.0,279.0,353.0,272.0,19.0,19.0,19.0,19.0,-0.0003838664624,-0.0001171761481999,-2.588759699999999e-05,0.0011081941364,-0.0043229482849999,0.0007309822124999,0.05594319563,0.056171088205,0.0,0.0,0.0,9.092055821,-50.3580535,140.3580535,97.02525088,84.17039372,-50.3580535,0
23,23.0,-1.2012402435,0.98990178275,9.743428143,9.866979465,-74.90521146,-1.2012402435,0.98990178275,9.743428143,9.866979465,5.8011689165,-7.0283728175,-1.0,-1.0,-1.0,-1.0,20.0,20.0,20.0,20.0,-0.00019775510435,0.00110435021435,0.00010745434605,0.0015638650615,-0.00113336738615,0.002047266412505,0.057371607355,0.0574591281,0.0,0.0,0.0,9.0765934125,-50.50925494,140.50925495,97.02837281,84.19883107999999,-50.50925494,0
24,24.0,-1.1591850505,0.95849209955,9.749905849,9.8653236765,-74.458665335,-1.1591850505,0.95849209955,9.749905849,9.8653236765,5.614614832499999,-6.780194899,-1.0,-1.0,-1.0,-1.0,20.0,20.0,20.0,20.0,-0.008383723217,-0.0045819744815,0.029775838645,0.033191491,-0.013707631955,-0.003567292399,0.05496252584,0.05711911791,0.0,0.0,0.0,8.769942738000001,-50.412478865,140.41247885,96.780194895,84.385385165,-50.412478865,0
25,25.0,-1.0237475765,0.8884304405500001,9.7728610545,9.866984274,-73.04264795,-1.0237475765,0.8884304405500001,9.7728610545,9.866984274,5.194531843,-5.9801863695,-1.0,-1.0,-1.0,-1.0,19.0,19.0,19.0,19.0,-0.01639565565,-0.008541364105,0.0687589386895,0.084494345275,0.01075269495,-0.00201973219,0.05833605398,0.070903140245,0.0,0.0,0.0,7.897349384,-48.975998520000005,138.97599855,95.980186365,84.805468155,-48.975998520000005,0
26,26.0,-0.9780367503,0.8508717795,9.800502104,9.885867699,-72.574361055,-0.9780367503,0.8508717795,9.800502104,9.885867699,4.961931884,-5.698938338,-1.0,-1.0,-1.0,-1.0,19.0,19.0,19.0,19.0,0.01578394374,0.004673750432,-0.05630037602,0.05865755844,0.02318757221,-0.009552352577,0.08333518246,0.08702679806,0.0,0.0,0.0,7.535024695,-48.97740431,138.9774043,95.69893833,85.03806811,-48.97740431,0
27,27.0,-1.1813888775,1.114687877,9.7220989675,9.8569171815,-71.86055551499999,-1.1813888775,1.114687877,9.7220989675,9.8569171815,6.5405678565,-6.9282762810000005,-1.0,-1.0,-1.0,-1.0,19.0,19.0,19.0,19.0,0.017497645615,0.0128909886015,-0.05789709815,0.075333413875,0.013513287992,0.003855721359,0.047910875485,0.05300215956,0.0,0.0,0.0,9.484530381,-46.667418105,136.66741810000002,96.928276275,83.45943214,-46.667418105,0
28,28.0,-1.348503126,1.0835687655,9.7096718685,9.862631463,-66.51156109,-1.348503126,1.0835687655,9.7096718685,9.862631463,6.3676594735,-7.9067015835,281.0,279.0,346.0,268.0,21.0,21.0,21.0,21.0,0.00955014494,0.0056795101299999,-0.0447811754649999,0.06567273464,-0.01770167794,-0.017027360695,0.053265595065,0.05911414977,1.0,0.0,0.0,10.1020007675,-51.211303105,141.2113031,97.90670158,83.63234052,-51.211303105,1
29,29.0,-1.3855481495,1.125436114,9.7100622335,9.873440313,-72.689396725,-1.3855481495,1.125436114,9.7100622335,9.873440313,6.6121737685,-8.1213384415,280.0,277.5,346.0,268.0,19.0,19.0,19.0,19.0,0.039172214165,0.019832230763,-0.004570688523,0.044191367515,0.00519393405,-0.01941899801,0.06463141859,0.071106012385,0.0,0.0,0.0,10.422012413,-51.01185243,141.0118524,98.12133844,83.38782623,-51.01185243,1
30,30.0,-1.596889545,1.4751529915,9.5595795755,9.8040369725,-63.104237455,-1.596889545,1.4751529915,9.5595795755,9.8040369725,8.7758761105,-9.4848467885,-1.0,-1.0,-1.0,-1.0,21.0,21.0,21.0,21.0,-0.03626603153,-0.01456128941,0.02066629054,0.07074279763,-0.0284519465799999,0.010459895625,-0.0073966819399999,0.07981382756,0.0,0.0,0.0,12.81731217,-47.29887096,137.29887095,99.484846785,81.224123885,-47.29887096,1
31,31.0,-1.3244531385,1.131894742,9.735284783,9.8903621245,-72.31861586,-1.3244531385,1.131894742,9.735284783,9.8903621245,6.6355152765,-7.7489321705,-1.0,-1.0,-1.0,-1.0,20.0,20.0,20.0,20.0,0.027394913775,0.01597705212,0.0060399482349999,0.05279289535,0.035558443245,-0.04507649717,0.08837879003,0.11091480148,0.0,0.0,0.0,10.1523766535,-49.53483101,139.534831,97.748932165,83.36448472000001,-49.53483101,1
32,32.0,-1.463475804,1.3813627355,9.705295675,9.9118266475,-69.32124605999999,-1.463475804,1.3813627355,9.705295675,9.9118266475,8.0996597795,-8.575139649,-1.0,-1.0,-1.0,-1.0,19.0,19.0,19.0,19.0,0.0079317057835,-0.00050944217035,0.00134757839785,0.008426842736,-0.000407113823,-0.0242630385499999,0.10365521993,0.107215913315,0.0,0.0,0.0,11.71531133,-46.66765723,136.66765725,98.575139645,81.900340215,-46.66765723,1
33,33.0,-1.4763094105,1.4021415844999998,9.6274458,9.840421232,-73.105738435,-1.4763094105,1.4021415844999998,9.6274458,9.840421232,8.2850772695,-8.718525484,-1.0,-1.0,-1.0,-1.0,20.0,20.0,20.0,20.0,0.005294519906,0.005371764184,-0.005404684327,0.012550019881,-0.00633923735,-0.0235729223549999,0.037173558875,0.09345147623,0.0,0.0,0.0,11.941566715,-46.48489458,136.48489455,98.71852548,81.71492272500001,-46.48489458,1
34,34.0,-1.398789731,1.1037914185000002,9.704576582,9.8673024725,-72.92963583,-1.398789731,1.1037914185000002,9.704576582,9.8673024725,6.489972774,-8.2024027685,-1.0,-1.0,-1.0,-1.0,21.0,21.0,21.0,21.0,-0.03485986619,-0.017408006195,-0.020633468217,0.06289033454,-0.014165930415,-0.025238845685,0.0628963433249999,0.06926394353,0.0,0.0,0.0,10.410110709,-51.802759505,141.8027595,98.202402765,83.51002722,-51.802759505,1
35,35.0,-1.3574433585,1.0649281175,9.7103982995,9.8626009295,-73.168394475,-1.3574433585,1.0649281175,9.7103982995,9.8626009295,6.2586805860000005,-7.9579376995,-1.0,-1.0,-1.0,-1.0,22.0,22.0,22.0,22.0,-0.0100212825595,-0.008737465538,0.008014759364,0.01798742356,0.007661089305,-0.0162997298815,0.05679854582,0.06716791012,1.0,0.0,0.0,10.077854642,-51.90484035,141.90484035,97.957937695,83.74131941,-51.90484035,1
36,36.0,-1.2810903705,1.0047679275,9.731530824499998,9.866785114,-72.17967904,-1.2810903705,1.0047679275,9.731530824499998,9.866785114,5.8948271575,-7.499478824,-1.0,-1.0,-1.0,-1.0,18.0,18.0,18.0,18.0,-0.00103853508015,-0.002342594097,0.0012898098805999,0.0029910834184999,0.0034593933558649,-0.01230173129,0.059167430595,0.060649502495,0.0,0.0,0.0,9.4977841585,-51.89262858,141.8926286,97.49947882,84.10517284,-51.89262858,0
37,37.0,-1.2712109150000002,1.0001848111,9.7345921055,9.868061543,-74.11440753,-1.2712109150000002,1.0001848111,9.7345921055,9.868061543,5.8662946935,-7.439982683,-1.0,-1.0,-1.0,-1.0,20.0,20.0,20.0,20.0,0.00011952334385,0.00046510666065,0.0013126639774499,0.00207289027435,0.0012285430025,-0.01242885234,0.060507085025,0.061784669165,0.0,0.0,0.0,9.434150385,-51.80437938,141.80437940000002,97.43998268,84.1337053,-51.80437938,0
38,38.0,-1.2978643125,1.005106928,9.7279471005,9.8654780235,-71.91705095,-1.2978643125,1.005106928,9.7279471005,9.8654780235,5.898959205500001,-7.599298836,-1.0,-1.0,-1.0,-1.0,18.0,18.0,18.0,18.0,0.0002756892935999,0.0026743639405,0.00104662162895,0.0043649659145,0.0011761459315,-0.013882174925,0.057900843425,0.059700790335,0.0,0.0,0.0,9.578207878,-52.24456704,142.24456705,97.599298835,84.10104079,-52.24456704,0
39,39.0,-1.2999511495,1.0038976782,9.7279309575,9.8656181235,-73.02546638999999,-1.2999511495,1.0038976782,9.7279309575,9.8656181235,5.891915845,-7.6113872415,-1.0,-1.0,-1.0,-1.0,20.0,20.0,20.0,20.0,-9.335403319e-05,-0.00137466957615,-0.00066295079,0.002365849974,-0.0046636646815,-0.0108534985075,0.0567435705299999,0.05877660317,55.0,1478.8727272727272,465.09090909090907,9.583595277,-52.32286812,142.3228681,97.611387235,84.10808415,-52.32286812,0
40,40.0,-1.2836526895,1.007497545,9.728648583,9.864554426,-73.837167635,-1.2836526895,1.007497545,9.728648583,9.864554426,5.912468033,-7.51650955,284.0,286.0,352.0,280.0,19.0,19.0,19.0,19.0,-7.199052510000001e-05,-0.00032054572755,-0.0003737788122,0.00114148146665,0.0027438102445,-0.0054155170105,0.05637165322,0.056717829675,24.0,1234.875,358.2083333333333,9.5217473285,-51.872802915,141.8728029,97.516509545,84.08753196,-51.872802915,0
41,41.0,-1.296473088,1.00172865945,9.730642965,9.8676117165,-71.79492734499999,-1.296473088,1.00172865945,9.730642965,9.8676117165,5.8776596735,-7.5891754515,-1.0,-1.0,-1.0,-1.0,19.0,19.0,19.0,19.0,0.0001367600338,0.001699411736,0.00091917981745,0.0020945263784999,-0.0023355241119,-0.011307853679,0.059059130985,0.060312616025,17.0,1018.529411764706,326.4117647058824,9.5574656855,-52.30847147,142.30847145,97.589175445,84.12234032,-52.30847147,0
42,42.0,-1.3023094805,1.0001965514,9.7282450105,9.8658585565,-75.30523539500001,-1.3023094805,1.0001965514,9.7282450105,9.8658585565,5.870163252999999,-7.62479116,-1.0,-1.0,-1.0,-1.0,19.0,19.0,19.0,19.0,0.00063523785765,0.0003696544767,-0.000594579966,0.0014332807113499,0.000209391945415,-0.01508430012,0.05840537788,0.060366538755,32.0,1249.71875,285.90625,9.5809004865,-52.475216634999995,142.47521665,97.624791155,84.12983674,-52.475216634999995,0
43,43.0,-1.2914144900000002,1.0017888285,9.729794729,9.86611589,-74.186912235,-1.2914144900000002,1.0017888285,9.729794729,9.86611589,5.878513479,-7.5605546035,-1.0,-1.0,-1.0,-1.0,19.0,19.0,19.0,19.0,0.00022241460415,-0.001433052709,-0.0009465903185,0.0018681080604999,0.0020874244585,-0.01379092826,0.058596576105,0.060237712,56.0,1182.232142857143,318.64285714285717,9.535582069,-52.19815776,142.19815775,97.560554595,84.121486515,-52.19815776,0
44,44.0,-1.2819532825,1.00098315065,9.730958485,9.8659490385,-75.213850385,-1.2819532825,1.00098315065,9.730958485,9.8659490385,5.873123185,-7.504906373,-1.0,-1.0,-1.0,-1.0,18.0,18.0,18.0,18.0,-0.000100138900775,-0.000517725795,-0.0002260379054699,0.00062067354775,0.0017772268024999,-0.0111854010885,0.05798507773,0.059244845205,40.0,1155.8,331.05,9.4889097755,-52.016313555,142.01631355,97.504906365,84.12687681,-52.016313555,0
45,45.0,-1.2828029855,0.99626795585,9.7310993685,9.865724095,-75.31605139000001,-1.2828029855,0.99626795585,9.7310993685,9.865724095,5.845566594,-7.5097130795,-1.0,-1.0,-1.0,-1.0,19.0,19.0,19.0,19.0,-0.0005417094410499,0.0015060296975,0.0007106784055999,0.001829651701,0.00106065768955,-0.0116779494645,0.05781576644,0.05933819772,0.0,0.0,0.0,9.4761222505,-52.16594387,142.16594385000002,97.509713075,84.1544334,-52.16594387,0
46,46.0,-1.283674702,0.99959045845,9.728911272,9.864011224,-75.632812535,-1.283674702,0.99959045845,9.728911272,9.864011224,5.871244337,-7.513178394,-1.0,-1.0,-1.0,-1.0,19.0,19.0,19.0,19.0,-2.7628022000000007e-05,5.0120618350000016e-05,0.00055715827722,0.00100668107785,0.0048010183565,-0.0058624513755,0.0559498454,0.056467109065,0.0,0.0,0.0,9.494181275,-52.05623306,142.0562331,97.51317839,84.12875566,-52.05623306,0
47,47.0,-1.2860036825,0.9965453203,9.7312079665,9.8662731255,-75.32435077,-1.2860036825,0.9965453203,9.7312079665,9.8662731255,5.8471157055,-7.5281595925,-1.0,-1.0,-1.0,-1.0,18.0,18.0,18.0,18.0,0.000104991815015,0.00079162522915,0.00010015382935,0.0012158258164,0.002541529545,-0.0090028411399999,0.058239316955,0.05916039329,19.0,1209.421052631579,289.5263157894737,9.491359835,-52.22761002,142.22761005,97.52815959,84.15288429,-52.22761002,0
48,48.0,-1.2783108565,0.99621805975,9.7316188765,9.865644688,-75.48961247,-1.2783108565,0.99621805975,9.7316188765,9.865644688,5.844962303,-7.4833254175,278.0,299.0,348.0,290.0,19.0,19.0,19.0,19.0,0.0002137892537389,-0.0009484470082499,-0.00067882890145,0.0014459824655,0.007984907535,-0.0092961298795,0.0583700366199999,0.059684682405,23.0,1217.0,277.0,9.4550101,-52.06984054,142.0698405,97.48332541,84.155037695,-52.06984054,0
49,49.0,-1.2742780665,0.9964572682,9.733742402,9.8672416525,-75.25359173,-1.2742780665,0.9964572682,9.733742402,9.8672416525,5.845089905,-7.458374944,-1.0,-1.0,-1.0,-1.0,19.0,19.0,19.0,19.0,0.00010108026245,0.0005370563495,0.00014525078985,0.00178469778,0.0084695342295,-0.007381471297,0.0598109912,0.06090452145,31.0,1156.774193548387,285.1290322580645,9.43560404,-51.975337205,141.9753372,97.45837494,84.15491008999999,-51.975337205,0
50,50.0,-1.2782917785,0.99783528495,9.7329455295,9.867114292,-75.07992309,-1.2782917785,0.99783528495,9.7329455295,9.867114292,5.8535934335,-7.482209707,-1.0,-1.0,-1.0,-1.0,18.0,18.0,18.0,18.0,0.00012917146225,0.000937380489,0.001344368193,0.001645467506,0.011796933855,-0.0076464089244999,0.0601780301,0.061805613825,47.0,1117.6382978723404,322.9148936170213,9.4593446715,-52.024292605,142.0242926,97.4822097,84.146406565,-52.024292605,0
51,51.0,-1.284185405,0.9955708762,9.732713659,9.867421583,-74.012680165,-1.284185405,0.9955708762,9.732713659,9.867421583,5.840539277,-7.516487475,-1.0,-1.0,-1.0,-1.0,19.0,19.0,19.0,19.0,-0.0002241374413,0.0007777384861,0.0003552540598,0.0008839231824,0.008844547123,-0.01243819284,0.06090942506,0.06279245747,38.0,1294.6315789473683,339.2368421052632,9.478239435,-52.21519667,142.2151967,97.51648747,84.15946072,-52.21519667,0
52,52.0,-1.2866464635,0.9978250123,9.7305270295,9.8658370595,-74.859621925,-1.2866464635,0.9978250123,9.7305270295,9.8658370595,5.8549735720000005,-7.532407031,288.0,301.0,360.0,293.0,18.0,18.0,18.0,18.0,0.00067561005675,0.00129278008165,-0.00117022700715,0.0024778621838999,0.0137843379664999,-0.01112492325,0.05965547819,0.0635198713,34.0,1186.5882352941176,313.88235294117646,9.499781059,-52.200601435,142.20060139999998,97.532407025,84.14502642,-52.200601435,0
53,53.0,-1.2733153625,1.0002214993,9.7321237095,9.865901766,-75.536304315,-1.2733153625,1.0002214993,9.7321237095,9.865901766,5.8679869435,-7.454026546,-1.0,-1.0,-1.0,-1.0,18.0,18.0,18.0,18.0,-0.0002875959309,-0.0019973661265,0.0007583060206,0.002751963262,0.01252786591,-0.009110839786,0.05931496387,0.06134142916,0.0,0.0,0.0,9.446122699,-51.849405725,141.84940575000002,97.454026545,84.13201305,-51.849405725,0
54,54.0,-1.2650457945,0.9959700461,9.7353361465,9.8675770625,-74.13703475,-1.2650457945,0.9959700461,9.7353361465,9.8675770625,5.8413021055000005,-7.40374134,286.3333333333333,298.0,355.0,288.6666666666667,20.0,20.0,20.0,20.0,-0.0003802948288999,0.0005438304914999,0.0007126766882499,0.001844379922,0.01461681093,-0.011514106325,0.061443229985,0.06430666028,33.0,965.3030303030304,320.0,9.390758682,-51.78665757,141.7866576,97.403741335,84.15869789,-51.78665757,0
55,55.0,-1.2662389015,0.991319423,9.7348650675,9.866797347,-73.346439095,-1.2662389015,0.991319423,9.7348650675,9.866797347,5.814493221999999,-7.41100072,-1.0,-1.0,-1.0,-1.0,19.0,19.0,19.0,19.0,0.0001410871137499,0.00014730260645,0.00016968295332,0.0014087749124999,0.014459720035,-0.010733654232,0.0606094972899999,0.0633134100699999,23.0,954.7391304347826,335.3478260869565,9.3801499335,-51.943306515,141.9433065,97.411000715,84.18550676999999,-51.943306515,0
56,56.0,-1.2652703275,0.9905181481,9.7357323815,9.8674477545,-74.99581481499999,-1.2652703275,0.9905181481,9.7357323815,9.8674477545,5.8093118785,-7.4047430075,-1.0,-1.0,-1.0,-1.0,21.0,21.0,21.0,21.0,0.0001602624908,-5.1870362345e-05,0.0002364759086499,0.0006809265268,0.01562363554,-0.01311900651,0.06146278376,0.06477552113,79.0,861.8481012658228,405.9873417721519,9.372110362,-51.94438304,141.944383,97.404743005,84.190688115,-51.94438304,0
57,57.0,-1.2678957505,0.9960845141,9.733511999,9.8661575115,-74.87637633,-1.2678957505,0.9960845141,9.733511999,9.8661575115,5.843055871,-7.421604546999999,-1.0,-1.0,-1.0,-1.0,17.0,17.0,17.0,17.0,0.0005400319716,0.00036613258656,-5.396523999999991e-05,0.0015039305675,0.0123604076715,-0.0103633090805,0.05962017133,0.062244360675,50.0,442.6,579.56,9.4058275065,-51.84564175,141.84564175,97.42160454,84.156944125,-51.84564175,0
58,58.0,-1.261472343,0.99585851335,9.734156247,9.8659438065,-70.160186725,-1.261472343,0.99585851335,9.734156247,9.8659438065,5.841354899500001,-7.3839433275,-1.0,-1.0,-1.0,-1.0,20.0,20.0,20.0,20.0,0.0003661989740999,-0.0003923077602,0.0002866825613999,0.0007751154596,0.017597500765,-0.01233576768,0.0603124988599999,0.0640505235449999,18.0,387.05555555555554,715.7777777777778,9.375403695,-51.711004720000005,141.7110047,97.38394332,84.158645095,-51.711004720000005,0
59,59.0,-1.269637716,0.99509245925,9.733988948,9.8667510525,-74.76936141,-1.269637716,0.99509245925,9.733988948,9.8667510525,5.836995459000001,-7.4313365755,-1.0,-1.0,-1.0,-1.0,18.0,18.0,18.0,18.0,0.00026980042455,0.0019117505894999,-0.00091027843715,0.0025253713299999,0.01504440577,-0.01440645663,0.06082621115,0.0643217990849999,0.0,0.0,0.0,9.409623242,-51.91186278,141.91186275,97.431336575,84.163004535,-51.91186278,0
60,60.0,-1.2775888285,0.9952392129,9.7327723605,9.8665899765,-74.495307,-1.2775888285,0.9952392129,9.7327723605,9.8665899765,5.8385733129999995,-7.478270572,322.0,306.0,390.5,298.0,20.0,20.0,20.0,20.0,0.00040386102675,0.0010819153338,-0.00062519429235,0.00216169423265,0.01588475528,-0.013220058005,0.060852644005,0.064318993795,0.0,0.0,0.0,9.4471899745,-52.08153316,142.08153314999998,97.47827057,84.16142668500001,-52.08153316,0
61,61.0,-1.298058027,1.0067549715,9.728001399,9.8657310395,-71.70763307499999,-1.298058027,1.0067549715,9.728001399,9.8657310395,5.908521901,-7.600384539,325.0,304.0,394.0,296.0,20.0,20.0,20.0,20.0,0.0016832844095,0.00086597228595,-0.00029703058685,0.0026100904245,0.0134560512,-0.0131343217749999,0.0598982007,0.0629412434749999,4.0,0.0,0.0,9.5849892595,-52.20239375,142.20239375,97.600384535,84.091478095,-52.20239375,0
62,62.0,-1.286322138,1.0108992945,9.731319499,9.867883439,-73.79638195,-1.286322138,1.0108992945,9.731319499,9.867883439,5.930671549,-7.5299161415,-1.0,-1.0,-1.0,-1.0,19.0,19.0,19.0,19.0,0.00048338377155,-0.00077377462325,0.0004728080126,0.0011738475214,0.013171327625,-0.016034737795,0.06209164034,0.06547509781,1.0,0.0,0.0,9.543237086,-51.836755295,141.8367553,97.529916135,84.06932845,-51.836755295,0
63,63.0,-1.286116683,1.013376496,9.730857225,9.867655203999998,-65.27463746,-1.286116683,1.013376496,9.730857225,9.867655203999998,5.9453814975,-7.5290803495,-1.0,-1.0,-1.0,-1.0,20.0,20.0,20.0,20.0,-0.0003547333682999,0.0006239486723499,0.001351381465,0.0015314909245,0.013008038395,-0.013571462055,0.061470860945,0.06429618442,1.0,0.0,0.0,9.5515418885,-51.76415844,141.76415845,97.529080345,84.0546185,-51.76415844,0
64,64.0,-1.2950495775,1.008392742,9.730695796,9.8681536975,-70.0110038,-1.2950495775,1.008392742,9.730695796,9.8681536975,5.916447531999999,-7.580893426,328.0,294.0,394.0,288.0,18.0,18.0,18.0,18.0,0.0003969364083,0.00050961237995,-0.0005257326411,0.00146677742605,0.00973102371,-0.019729338265,0.0626455723,0.06643278455,0.0,0.0,0.0,9.574364009,-52.093848595,142.0938486,97.580893425,84.08355245999999,-52.093848595,0
65,65.0,-1.2910226575,1.0159490875,9.731353253,9.8690492115,-72.96728466,-1.2910226575,1.0159490875,9.731353253,9.8690492115,5.9600603015,-7.557088746,328.0,294.0,394.0,287.0,20.0,20.0,20.0,20.0,0.0016363293125,-0.0001707755134999,0.00053525622925,0.0025126091794999,0.007855185336,-0.01761468771,0.062753579545,0.06567095503,1.0,0.0,0.0,9.5822275125,-51.799659855,141.79965985,97.557088745,84.039939695,-51.799659855,0
66,66.0,-1.2971085315000002,1.020555685,9.729940015,9.8689337695,-70.210370805,-1.2971085315000002,1.020555685,9.729940015,9.8689337695,5.98775419,-7.593383467,-1.0,-1.0,-1.0,-1.0,19.0,19.0,19.0,19.0,-0.0014572957504499,0.0015160710955,-0.001637073195,0.005050811913,0.00794639187,-0.015805196605,0.06238560624,0.065023089305,2.0,0.0,0.0,9.627431437,-51.803981095,141.8039811,97.593383465,84.01224580499999,-51.803981095,0
67,67.0,-1.306544791,1.002697233,9.7281598935,9.8665881905,-71.614467295,-1.306544791,1.002697233,9.7281598935,9.8665881905,5.8847864444999995,-7.649362216,-1.0,-1.0,-1.0,-1.0,20.0,20.0,20.0,20.0,0.0002846051775,1.9143799000000063e-05,-0.0006139268684999,0.004270412331,0.0033151863995,-0.018044324065,0.05970174572,0.06253099208,3.0,0.0,0.0,9.6089436255,-52.495857475,142.49585745000002,97.64936221,84.11521354999999,-52.495857475,0
68,68.0,-1.306808947,1.0088109900000002,9.7283682835,9.8674515805,-74.12878581000001,-1.306808947,1.0088109900000002,9.7283682835,9.8674515805,5.9202893595,-7.6507275935,-1.0,-1.0,-1.0,-1.0,20.0,20.0,20.0,20.0,0.0004876579943,0.00021821129435,-0.0004943435345,0.0024566072475,0.0058854074295,-0.01422736272,0.06072154599,0.062677544915,1.0,0.0,0.0,9.6312806455,-52.333095385,142.33309535,97.65072759,84.079710635,-52.333095385,0
69,69.0,-1.3208723495,1.0010374494,9.7291108565,9.8692718755,-69.0144679,-1.3208723495,1.0010374494,9.7291108565,9.8692718755,5.874510422,-7.7315096335,338.0,303.0,403.0,295.0,21.0,21.0,21.0,21.0,0.0006528366515,0.0003376902187,-0.0125112798265,0.0159358255165,-0.0055473867715,-0.0153924433699999,0.06097073483,0.063340654995,4.0,0.0,0.0,9.6677203265,-52.842870115,142.8428701,97.73150963,84.125489575,-52.842870115,0
70,70.0,-1.31587392,1.00709690785,9.726573486,9.8667146585,-68.993520555,-1.31587392,1.00709690785,9.726573486,9.8667146585,5.911382233,-7.704567716,-1.0,-1.0,-1.0,-1.0,19.0,19.0,19.0,19.0,0.00057839021755,0.00042173117255,0.008509392337,0.0156192168289999,0.0100974406255,-0.018453581145,0.061018813845,0.064653919935,2.0,0.0,0.0,9.6682321075,-52.57216761,142.5721676,97.70456771,84.08861776500001,-52.57216761,0
71,71.0,-1.3312977285,1.0027999606,9.727122345,9.8688847545,-68.50410119,-1.3312977285,1.0027999606,9.727122345,9.8688847545,5.8860080945,-7.7933381345,-1.0,-1.0,-1.0,-1.0,20.0,20.0,20.0,20.0,-0.00144104219665,0.0013149080653,0.00582563132285,0.007028698113,-0.0053725148955,-0.015791345295,0.060589347325,0.06297504259,6.0,0.0,0.0,9.7231138235,-53.011146825,143.01114685,97.79333813,84.1139919,-53.011146825,0
72,72.0,-1.324840568,1.005553059,9.7271311505,9.8683038455,-65.06320524,-1.324840568,1.005553059,9.7271311505,9.8683038455,5.9020505745000005,-7.7559915185,-1.0,-1.0,-1.0,-1.0,20.0,20.0,20.0,20.0,0.001683457926,0.0002777507282149,-0.00123292293545,0.0021859981805,0.0065744158055,-0.01974520959,0.06181091666,0.065240354725,5.0,0.0,0.0,9.703106088,-52.80151652,142.80151655,97.75599151,84.09794942,-52.80151652,0
73,73.0,-1.341291652,1.0213642975,9.724135908,9.869199876,-72.38629363000001,-1.341291652,1.0213642975,9.724135908,9.869199876,5.996018493999999,-7.853497345,315.0,296.0,380.0,287.0,18.0,18.0,18.0,18.0,0.0007776607322,-0.0003566561441,-0.00146901668229,0.002316226616,-0.0056695620495,-0.016061243025,0.0609788808049999,0.06346960691,3.0,0.0,0.0,9.835740793,-52.711661205,142.71166119999998,97.85349734,84.003981505,-52.711661205,0
74,74.0,-1.332514316,1.02256621,9.723823323,9.8678258685,-67.58931777000001,-1.332514316,1.02256621,9.723823323,9.8678258685,6.003212362499999,-7.802985270000001,-1.0,-1.0,-1.0,-1.0,20.0,20.0,20.0,20.0,-0.00021580582959,0.0001855454425999,0.002155130339,0.002189220454,-0.0021108806795,-0.01489352181,0.05981235555,0.061688669135,4.0,0.0,0.0,9.8003346465,-52.497407464999995,142.4974075,97.802985265,83.99678763,-52.497407464999995,0
75,75.0,-1.3268628335,1.0168618955,9.727473086,9.870076445,-69.521039355,-1.3268628335,1.0168618955,9.727473086,9.870076445,5.954443847,-7.825039035,-1.0,-1.0,-1.0,-1.0,18.0,18.0,18.0,18.0,-0.00016039755995,-0.00120515461945,0.002493636806,0.0042244814725,0.000723198823,-0.019603641045,0.06326957913,0.066385029665,2.0,0.0,0.0,9.78862872,-52.80350984,142.8035098,97.82503903,84.04555615,-52.80350984,0
76,76.0,-1.3149699175,1.0159182695,9.727798879,9.868704076,-67.248194945,-1.3149699175,1.0159182695,9.727798879,9.868704076,5.9620468980000005,-7.698380368,-1.0,-1.0,-1.0,-1.0,20.0,20.0,20.0,20.0,0.000182886185673,-0.00073122869435,-0.00128240012055,0.0016803281265,-0.002144725739,-0.01799635683,0.0612743944949999,0.06393203447,4.0,0.0,0.0,9.693668488,-52.31110957,142.31110955,97.698380365,84.037953095,-52.31110957,0
77,77.0,-1.312165456,1.023145887,9.726347486,9.867646178,-63.73177001,-1.312165456,1.023145887,9.726347486,9.867646178,6.005043137,-7.683290334,-1.0,-1.0,-1.0,-1.0,19.0,19.0,19.0,19.0,0.001000351743,-0.001267980471,-0.002914184033,0.003331808318,-0.003881186843,-0.01067389153,0.05896565006,0.0600495084,2.0,0.0,0.0,9.707770922,-52.05508669,142.0550867,97.68329033,83.99495686,-52.05508669,0
78,78.0,-1.314909749,1.0162059065,9.727514177,9.8684454315,-68.992770945,-1.314909749,1.0162059065,9.727514177,9.8684454315,5.963893568,-7.698257921,-1.0,-1.0,-1.0,-1.0,19.0,19.0,19.0,19.0,-4.53273647e-05,0.0004468537904,0.0014940339241499,0.002439132079,-0.00300166672205,-0.017236572065,0.0608390406299999,0.063417426235,4.0,0.0,0.0,9.694708315,-52.30178423,142.30178425,97.698257915,84.036106425,-52.30178423,0
79,79.0,-1.314142227,1.0168985835000002,9.72722654,9.86813439,-68.007576575,-1.314142227,1.0168985835000002,9.72722654,9.86813439,5.9681004755,-7.6940413035,-1.0,-1.0,-1.0,-1.0,21.0,21.0,21.0,21.0,0.00028057180245,3.381439155000001e-05,-0.00092252754095,0.001386007553,-0.0031123625399999,-0.01516025373,0.060199653335,0.062675195165,3.0,0.0,0.0,9.6940491275,-52.26636426,142.26636424999998,97.694041295,84.03189952,-52.26636426,0
80,80.0,-1.306265959,1.019703046,9.7275361905,9.867680135,-65.852518825,-1.306265959,1.019703046,9.7275361905,9.867680135,5.9842573485,-7.648232441499999,-1.0,-1.0,-1.0,-1.0,19.0,19.0,19.0,19.0,0.0002962504216999,-0.0012292868283,8.604491549999978e-06,0.0014441906326,-0.0023686755315,-0.013646481255,0.0596942532599999,0.0613791316,3.0,0.0,0.0,9.667865874,-52.02363145,142.02363145,97.648232435,84.01574264499999,-52.02363145,0
81,81.0,-1.29999224,1.020816906,9.728730765,9.868144275,-74.321108165,-1.29999224,1.020816906,9.728730765,9.868144275,5.9900186175000005,-7.6110102575,-1.0,-1.0,-1.0,-1.0,20.0,20.0,20.0,20.0,-0.0004035432539,0.00038173361385,0.000713076015575,0.0010871656286,-0.00257405611505,-0.013742368425,0.06019844949,0.0618970862,4.0,0.0,0.0,9.6423595715,-51.859263115000005,141.85926310000002,97.611010255,84.00998138,-51.859263115000005,0
82,82.0,-1.310954738,1.0182193665,9.724353104,9.865011932,-66.216968865,-1.310954738,1.0182193665,9.724353104,9.865011932,5.97755452,-7.677844616,-1.0,-1.0,-1.0,-1.0,19.0,19.0,19.0,19.0,9.001161465000001e-05,0.00155176886015,0.0004532156583499,0.00176839459985,-0.00118597011345,-0.014385604425,0.05746421693,0.05928739578,4.0,0.0,0.0,9.6869699585,-52.163054759999994,142.16305475,97.67784461,84.022445475,-52.163054759999994,0
83,83.0,-1.3065169074999998,1.0228846655,9.7262124725,9.866738504,-71.25842715,-1.3065169074999998,1.0228846655,9.7262124725,9.866738504,6.003604514999999,-7.6507097915,-1.0,-1.0,-1.0,-1.0,19.0,19.0,19.0,19.0,0.000313697764,-0.0006679776524,-0.00119097528775,0.0014436144039,0.004627156845,-0.0109108864935,0.059326572315,0.06073154283,3.0,0.0,0.0,9.681573759,-51.942156375,141.9421564,97.650709785,83.99639548,-51.942156375,0
84,84.0,-1.305724438,1.0189076415,9.7275919565,9.867581575,-66.87542726,-1.305724438,1.0189076415,9.7275919565,9.867581575,5.979589413999999,-7.6450560745,-1.0,-1.0,-1.0,-1.0,19.0,19.0,19.0,19.0,5.1143565499999985e-05,-0.00011477409065,-0.00112833908065,0.0014116980645,0.0012269149545,-0.01380499096,0.06002154256,0.06174616079,5.0,0.0,0.0,9.662581716999998,-52.033401945,142.03340194999998,97.64505607,84.02041058,-52.033401945,0
85,85.0,-1.3076909364999998,1.0167034015,9.7258235755,9.8658736795,-59.4830134,-1.3076909364999998,1.0167034015,9.7258235755,9.8658736795,5.967820649,-7.657806888,-1.0,-1.0,-1.0,-1.0,19.0,19.0,19.0,19.0,-7.220956169999999e-05,0.0006802781649499,0.0002034866644,0.0009299492604,0.001158053958,-0.0112133695535,0.05802681653,0.0594172981799999,3.0,0.0,0.0,9.66555207,-52.13564956,142.13564954999998,97.65780688,84.032179345,-52.13564956,0
86,86.0,-1.3071582215,1.0191307065,9.7261170825,9.866339001,-74.62717291999999,-1.3071582215,1.0191307065,9.7261170825,9.866339001,5.9817893995,-7.6544993235,-1.0,-1.0,-1.0,-1.0,20.0,20.0,20.0,20.0,0.0001753637060499,-0.00078345048265,-0.0003107813250999,0.0009674105029,0.0003258661882,-0.008768273921,0.05802842738,0.058688595965,2.0,0.0,0.0,9.6712630765,-52.058097065,142.05809705,97.654499315,84.018210595,-52.058097065,0
87,87.0,-1.3720556190000002,1.0663149395,9.706983342,9.861788751,-64.053186755,-1.3720556190000002,1.0663149395,9.706983342,9.861788751,6.269058046,-8.045763329,-1.0,-1.0,-1.0,-1.0,17.0,17.0,17.0,17.0,0.0055023821545,0.020264549155,0.04189718763,0.048691994825,0.0149608321505,-0.00682030699,0.0555336096349999,0.064829602815,2.0,0.0,0.0,10.152785207,-52.074610305,142.07461030000002,98.04576332,83.73094195,-52.074610305,0
88,88.0,-1.4482016845,1.1133304055000002,9.699450477,9.870047331,-67.49848034499999,-1.4482016845,1.1133304055000002,9.699450477,9.870047331,6.547915189999999,-8.491808774999999,-1.0,-1.0,-1.0,-1.0,19.0,19.0,19.0,19.0,-0.0056645173405,-0.002698955026,0.016532084705,0.028820536265,-0.00593169072,-0.015760929742,0.061728614235,0.07406771731,1.0,0.0,0.0,10.666691675,-52.43322266,142.43322265,98.49180877,83.452084805,-52.43322266,0
89,89.0,-1.3712205910000002,1.0961807745,9.7108341575,9.868256618,-70.07670163,-1.3712205910000002,1.0961807745,9.7108341575,9.868256618,6.4404164225,-8.037342725999999,319.0,297.0,388.0,294.0,19.0,19.0,19.0,19.0,0.0003399771719999,-0.00904946367,-0.0231568462929999,0.025491461165,-0.0078908820125,-0.001544291215,0.05838056161,0.05917998878,4.0,0.0,0.0,10.247429205,-51.357687420000005,141.35768745,98.03734272,83.55958357,-51.357687420000005,0
90,90.0,-1.34543891,1.067450813,9.714423752,9.865074924999998,-65.49341849,-1.34543891,1.067450813,9.714423752,9.865074924999998,6.27067436,-7.8852519445,-1.0,-1.0,-1.0,-1.0,20.0,20.0,20.0,20.0,0.0013855434315,-0.0023881204555,-0.0080035316775,0.0086232373925,-0.0066153907424999,-0.010219450375,0.055988345305,0.0574032075,1.0,0.0,0.0,10.02600027,-51.572182675,141.57218265,97.88525194,83.729325635,-51.572182675,0
91,91.0,-1.3057728665,1.0668315125,9.722951606,9.8680880055,-75.42300446,-1.3057728665,1.0668315125,9.722951606,9.8680880055,6.261620741,-7.648949241,-1.0,-1.0,-1.0,-1.0,19.0,19.0,19.0,19.0,-0.002105195034,-0.0043381629965,-0.0029447840245,0.005893798654,0.004371672216,-0.0015172528585,0.059709370035,0.06010891922,4.0,0.0,0.0,9.8385726175,-50.74905215,140.7490521,97.648949235,83.738379255,-50.74905215,0
92,92.0,-1.2962823085,1.046140716,9.7240992195,9.865747433,-64.789428155,-1.2962823085,1.046140716,9.7240992195,9.865747433,6.1403875155000005,-7.5931174735,-1.0,-1.0,-1.0,-1.0,19.0,19.0,19.0,19.0,-0.0003862887523,0.00046138989945,-0.00167120832,0.003508631751,-0.0030389627875,-0.00610247957625,0.0568251621199999,0.05816909362,3.0,0.0,0.0,9.7207004615,-51.09451128,141.09451124999998,97.59311747,83.85961248,-51.09451128,0
93,93.0,-1.2983397945,1.0461700665,9.7253040675,9.867204195,-70.35264239,-1.2983397945,1.0461700665,9.7253040675,9.867204195,6.139809165,-7.6040936135,-1.0,-1.0,-1.0,-1.0,20.0,20.0,20.0,20.0,0.00055375259237,0.00070979009705,0.00034816975833,0.0012347877545,0.0033611658655,-0.004126642351,0.05893099098,0.059220009315,4.0,0.0,0.0,9.728661291,-51.138778525,141.13877854999998,97.60409361,83.86019083,-51.138778525,0
94,94.0,-1.3001786175,1.0517232245,9.72471265,9.867454331,-69.04977995,-1.3001786175,1.0517232245,9.72471265,9.867454331,6.1725217489999995,-7.6151911395,-1.0,-1.0,-1.0,-1.0,20.0,20.0,20.0,20.0,0.0004813299519,-0.0007479230270999,-0.00193990049585,0.002206835752,-0.0009323500009999,-0.0028793588784999,0.05868735126,0.05881460333,2.0,0.0,0.0,9.7574067055,-51.030040035,141.03004,97.615191135,83.82747824500001,-51.030040035,0
95,95.0,-1.2870881925,1.05143999,9.7273732935,9.868329036,-70.67045235,-1.2870881925,1.05143999,9.7273732935,9.868329036,6.169197298,-7.5373714325,-1.0,-1.0,-1.0,-1.0,20.0,20.0,20.0,20.0,0.000226304056,-0.0007675592914,0.0004031093579999,0.0022929677035,0.0002203368438999,-0.004325778022,0.059685172875,0.059846835185,2.0,0.0,0.0,9.695614445,-50.75409587,140.75409589999998,97.537371425,83.83080269499999,-50.75409587,0
96,96.0,-1.296577283,1.0464019375,9.7261728485,9.8678528535,-71.34107305500001,-1.296577283,1.0464019375,9.7261728485,9.8678528535,6.140617675,-7.5932203155,-1.0,-1.0,-1.0,-1.0,18.0,18.0,18.0,18.0,0.0002090580208,0.00165530036685,-0.0033224068365,0.004242704005,0.0008261915074999,-0.0051027755285,0.059432940045,0.05974190219,4.0,0.0,0.0,9.72078693,-51.094844305,141.0948443,97.59322031,83.85938232000001,-51.094844305,0
97,97.0,-1.3054720215,1.053045475,9.721993305,9.865616745,-61.97114178,-1.3054720215,1.053045475,9.721993305,9.865616745,6.181938863,-7.6479540155,308.0,288.0,371.0,280.0,18.0,18.0,18.0,18.0,0.00089982709855,-0.00140681337025,-2.2459158895e-05,0.0017437010965,-0.0063069085545,-0.0045713266839999,0.0560429193149999,0.056782074675,3.0,0.0,0.0,9.788419533,-51.10829212,141.1082921,97.64795401,83.81806113,-51.10829212,0
98,98.0,-1.2987815225,1.0577225135,9.7247962995,9.8680010695,-69.99125795500001,-1.2987815225,1.0577225135,9.7247962995,9.8680010695,6.207389109,-7.6070572825,-1.0,-1.0,-1.0,-1.0,19.0,19.0,19.0,19.0,0.0020186709005,-0.00066966188405,-0.0115812959265,0.021492601456,-0.003559415138,-0.0063433139228999,0.058931610095,0.0609954707499999,2.0,0.0,0.0,9.7729719575,-50.839605785,140.83960580000002,97.60705728,83.792610885,-50.839605785,0
99,99.0,-1.3281205125,1.063853881,9.7207884575,9.8686186975,-69.185301415,-1.3281205125,1.063853881,9.7207884575,9.8686186975,6.245652861,-7.779969144,-1.0,-1.0,-1.0,-1.0,21.0,21.0,21.0,21.0,-0.00061939201365,0.0063280132214999,0.008326118483,0.01061421887,-0.0056833589015,-0.0078628332915,0.059478731765,0.0605734258,2.0,0.0,0.0,9.9295337605,-51.302464015,141.30246405,97.77996914,83.754347135,-51.302464015,0
100,100.0,-1.3353114405,1.0652289625,9.717900346,9.866883924,-62.036912865000005,-1.3353114405,1.0652289625,9.717900346,9.866883924,6.2555100635,-7.8238666475,-1.0,-1.0,-1.0,-1.0,20.0,20.0,20.0,20.0,-0.0010024150741,-0.0032134924127,0.002642761991,0.007335593612,0.0001615336314999,-0.00264266487865,0.0581097782,0.058244598885,3.0,0.0,0.0,9.9692615815,-51.418886585,141.41888655000002,97.82386664,83.74448993499999,-51.418886585,0
101,101.0,-1.31395585,1.056103821,9.7229383985,9.8679983625,-66.905316415,-1.31395585,1.056103821,9.7229383985,9.8679983625,6.1991531855,-7.696313355,-1.0,-1.0,-1.0,-1.0,19.0,19.0,19.0,19.0,2.179502499999992e-06,-0.0014011678606,-0.0014689573125,0.0045173924135,-0.0057668322015,-0.008130680197,0.059044300845,0.05997360401,1.0,0.0,0.0,9.8362264525,-51.209250055,141.20925005,97.69631335,83.80084681,-51.209250055,0
102,102.0,-1.3046502015,1.0523806805,9.723113035,9.8665401965,-66.62581890999999,-1.3046502015,1.0523806805,9.723113035,9.8665401965,6.202892111,-7.600536432,-1.0,-1.0,-1.0,-1.0,19.0,19.0,19.0,19.0,-1.0226602099999992e-05,0.00044783212785,-0.0002010305495,0.002294426534,-0.001112899982,-0.0069379635719999,0.05790221351,0.05857967987,6.0,0.0,0.0,9.76493084,-50.83703626,140.8370363,97.60053643,83.79710788,-50.83703626,0
103,103.0,-1.317331184,1.051842095,9.72269332,9.867750434,-61.1690426,-1.317331184,1.051842095,9.72269332,9.867750434,6.174486164,-7.716038458,-1.0,-1.0,-1.0,-1.0,20.0,20.0,20.0,20.0,0.0009885819711,0.001056482703,-4.192270046e-05,0.00144748317,-0.008844082785,-0.006611850884,0.05816518917,0.05920408435,5.0,0.0,0.0,9.836294503,-51.39387926,141.3938793,97.71603845,83.82551383,-51.39387926,0
104,104.0,-1.312183066,1.052417369,9.7228782295,9.8673137195,-67.15671037999999,-1.312183066,1.052417369,9.7228782295,9.8673137195,6.177720676,-7.6860954315,-1.0,-1.0,-1.0,-1.0,19.0,19.0,19.0,19.0,0.00070088440965,-0.00094851181835,-0.000733618718,0.0018446868595,-0.0063330949075,-0.010625071584,0.0582994057,0.06008600695,0.0,0.0,0.0,9.81522583,-51.268089925,141.26808995,97.686095425,83.82227932,-51.268089925,0
105,105.0,-1.2970762455,1.0569124335,9.7261699135,9.86903573,-74.56966387,-1.2970762455,1.0569124335,9.7261699135,9.86903573,6.2018191665,-7.5961115725,-1.0,-1.0,-1.0,-1.0,18.0,18.0,18.0,18.0,-0.00044599072735,-0.0002807519837,-0.000170450247,0.0015801189315,-0.00103471496965,-0.0067300563615,0.060607410635,0.061027018995,4.0,0.0,0.0,9.760882501,-50.82553652,140.8255365,97.596111565,83.79818083,-50.82553652,0
106,106.0,-1.306196985,1.0516469125,9.723638413,9.867181027,-59.673613829999994,-1.306196985,1.0516469125,9.723638413,9.867181027,6.1727539705000005,-7.6508628605,311.0,290.0,374.0,282.0,21.0,21.0,21.0,21.0,-0.00033135404215,0.0003410393175,0.0002258441858999,0.00127645008685,-0.0040068833485,-0.006961766611,0.0583565651,0.058984549205,1.0,0.0,0.0,9.7849583315,-51.16173529,141.16173525,97.650862855,83.827246025,-51.16173529,0
107,107.0,-1.3073548709999998,1.0498389075,9.723579712,9.867087883,-71.886547725,-1.3073548709999998,1.0498389075,9.723579712,9.867087883,6.1622606835,-7.657607123,-1.0,-1.0,-1.0,-1.0,18.0,18.0,18.0,18.0,0.000481070889005,0.0006137681859999,-0.0018761633102499,0.004033539065,0.001169405869,-0.009563903695,0.059269258135,0.060392676565,0.0,0.0,0.0,9.783712006,-51.234075335,141.23407535,97.65760712,83.837739315,-51.234075335,0
108,108.0,-1.297551727,1.0488380475,9.72511182,9.867202746,-73.07721947499999,-1.297551727,1.0488380475,9.72511182,9.867202746,6.1554721085,-7.59970706,-1.0,-1.0,-1.0,-1.0,21.0,21.0,21.0,21.0,0.0006871493759449,-0.003319378124,7.340156555000002e-05,0.0034755537305,-0.003290446087,-0.0092238902535,0.058475103065,0.059810290765,1.0,0.0,0.0,9.7350305295,-51.04898885,141.04898885,97.599707055,83.84452789,-51.04898885,0
109,109.0,-1.292531285,1.053576723,9.727454008,9.869348846,-71.68530428,-1.292531285,1.053576723,9.727454008,9.869348846,6.1815850905000005,-7.5688123765,-1.0,-1.0,-1.0,-1.0,20.0,20.0,20.0,20.0,0.0005829378725,0.003835725874,-0.003334460063,0.0052345194834999,-0.001990439502,-0.007018354905,0.060876697845,0.0613899118899999,0.0,0.0,0.0,9.7273916875,-50.815509035000005,140.81550905,97.56881237,83.8184149,-50.815509035000005,0
110,110.0,-1.3380131755,1.055535884,9.7170565125,9.865391927,-70.113421975,-1.3380131755,1.055535884,9.7170565125,9.865391927,6.1995683454999995,-7.840183939499999,-1.0,-1.0,-1.0,-1.0,19.0,19.0,19.0,19.0,0.0027531507725,0.001637408103615,-0.0099771571115,0.0105664164215,-0.00595639950545,-0.0111831610855,0.056653317035,0.05860300324,0.0,0.0,0.0,9.9479397695,-51.727591024999995,141.72759100000002,97.840183935,83.80043165000001,-51.727591024999995,0
111,111.0,-1.3262391305,1.0666128495,9.719802273,9.8676842685,-74.695876855,-1.3262391305,1.0666128495,9.719802273,9.8676842685,6.262354809,-7.7698670355,-1.0,-1.0,-1.0,-1.0,19.0,19.0,19.0,19.0,-7.783866024999999e-05,-0.0036289405489999,-0.0014702960204,0.0039711563035,-0.0047687296875,-0.0045277033025,0.05858273769,0.05902557693,0.0,0.0,0.0,9.931838215,-51.191821795,141.1918218,97.76986703,83.737645185,-51.191821795,0
112,112.0,-1.3060238155,1.0594483365,9.7246407405,9.868981306,-75.31094851,-1.3060238155,1.0594483365,9.7246407405,9.868981306,6.217552404,-7.6490807885,-1.0,-1.0,-1.0,-1.0,18.0,18.0,18.0,18.0,-0.000131050234324,-0.00041999259735,-0.0017122522354499,0.002087471776,-0.001781031792,-0.00598043471565,0.060310876545,0.060892321165,0.0,0.0,0.0,9.8112888445,-50.951183505,140.9511835,97.649080785,83.78244759,-50.951183505,0
113,113.0,-1.310338373,1.0524452525,9.7227035925,9.8669031165,-71.93971872,-1.310338373,1.0524452525,9.7227035925,9.8669031165,6.1779881375,-7.6755573095,-1.0,-1.0,-1.0,-1.0,21.0,21.0,21.0,21.0,-0.0001751334684999,0.00025388604375,0.00043469763308,0.002212421978,-0.003626685347,-0.003994142724,0.057773855665,0.05906029012,0.0,0.0,0.0,9.80744279,-51.227439035,141.227439,97.675557305,83.822011855,-51.227439035,0
114,114.0,-1.3081458735,1.0493252700000002,9.724586442,9.868128175,-73.81468422,-1.3081458735,1.0493252700000002,9.724586442,9.868128175,6.158631804500001,-7.6614049385,-1.0,-1.0,-1.0,-1.0,18.0,18.0,18.0,18.0,-0.0001337034649999,0.0002063698805499,0.001437889976,0.0037564658924999,-0.004157883393,-0.0085316307969999,0.05938588716,0.06031832139,0.0,0.0,0.0,9.784466926,-51.2653102,141.2653102,97.66140493,83.84136819,-51.2653102,0
115,115.0,-1.290536903,1.0524217720000002,9.724912235,9.866465656,-74.30269769,-1.290536903,1.0524217720000002,9.724912235,9.866465656,6.1764622455,-7.559221565,-1.0,-1.0,-1.0,-1.0,19.0,19.0,19.0,19.0,4.324392309999997e-05,-0.0028723497869999,0.0027424591235,0.006385919238,-0.0093652388115,-0.0061196400095,0.056825907355,0.058021813355,0.0,0.0,0.0,9.7170109675,-50.801540485,140.8015405,97.559221555,83.82353775,-50.801540485,0
116,116.0,-1.288294507,1.0554126115,9.7262403555,9.867802377,-72.18937033,-1.288294507,1.0554126115,9.7262403555,9.867802377,6.19303613,-7.545245699,-1.0,-1.0,-1.0,-1.0,20.0,20.0,20.0,20.0,0.00049832594059,0.002455212051,-0.00122718431275,0.0028800300785,-0.0006572385045,-0.0061937842805,0.059265033235,0.05980501036,0.0,0.0,0.0,9.7166366965,-50.672898364999995,140.67289835000005,97.545245695,83.806963865,-50.672898364999995,0
117,117.0,-1.298357405,1.057254369,9.7244147405,9.8675116465,-72.29027959,-1.298357405,1.057254369,9.7244147405,9.8675116465,6.204919729,-7.604880505000001,-1.0,-1.0,-1.0,-1.0,20.0,20.0,20.0,20.0,-1.2650179600000002e-05,-0.00177298537935,0.0012867202861,0.003278237868,0.0015194376819,-0.004576496024,0.059201052085,0.05945357409,0.0,0.0,0.0,9.769554121,-50.84380851,140.84380850000002,97.6048805,83.795080265,-50.84380851,0
118,118.0,-1.2926090645,1.056318081,9.7263636285,9.86857628,-72.554099005,-1.2926090645,1.056318081,9.7263636285,9.86857628,6.1982350285,-7.570104643,-1.0,-1.0,-1.0,-1.0,20.0,20.0,20.0,20.0,-0.0001535811713,0.0012161161502,-0.00023346439945,0.0015944633755,-0.002268615054,-0.00554138406,0.059608402375,0.0599538839549999,0.0,0.0,0.0,9.738732049,-50.744355915,140.74435590000002,97.570104635,83.80176497,-50.744355915,0
119,119.0,-1.2969911280000002,1.0555534945,9.7237073875,9.8664530755,-67.96006737,-1.2969911280000002,1.0555534945,9.7237073875,9.8664530755,6.1954609125,-7.597518832,-1.0,-1.0,-1.0,-1.0,19.0,19.0,19.0,19.0,-0.00011380694751,0.0001824841978499,0.0001755302027499,0.0009763243265,-0.00236985214037,-0.005320410185,0.057695881325,0.058141663655,1.0,0.0,0.0,9.7580615395,-50.859561775,140.8595618,97.597518825,83.804539085,-50.859561775,1
120,120.0,-1.2996004085,1.0567231215,9.724536546,9.8677375425,-71.504409375,-1.2996004085,1.0567231215,9.724536546,9.8677375425,6.201749702,-7.611985319,251.0,283.0,309.0,273.0,20.0,20.0,20.0,20.0,0.00035393576585,-0.00041173014225,-0.00152702030835,0.002210684307,-0.007415908961,-0.003589484589,0.05781476324,0.05840462732,0.0,0.0,0.0,9.7730027725,-50.88490085,140.88490085,97.611985315,83.798250295,-50.88490085,1
121,121.0,-1.2924579085,1.054008179,9.725138236,9.867103421,-70.845177825,-1.2924579085,1.054008179,9.725138236,9.867103421,6.185553443,-7.5701762745,238.72222222222223,290.0,289.05555555555554,277.72222222222223,19.0,19.0,19.0,19.0,-9.955783085e-05,0.0001802215175,0.0024795143055,0.0032774795765,0.0001592649694999,-0.0069270516359999,0.05890913271,0.05951135481,0.0,0.0,0.0,9.730962505,-50.80247065,140.80247064999998,97.57017627,83.81444655,-50.80247065,1
122,122.0,-1.2852288235,1.0581055405,9.7254860415,9.8669387285,-74.157770975,-1.2852288235,1.0581055405,9.7254860415,9.8669387285,6.209197627,-7.528051299,236.6315789473684,291.89473684210526,286.10526315789474,279.8421052631579,20.0,20.0,20.0,20.0,-0.0004148140422,-0.0005200106317,-0.0003044981093999,0.00075987934805,-0.0005497744197,-0.00055788098222,0.057500441005,0.057511169605,0.0,0.0,0.0,9.7134202125,-50.535993215,140.5359932,97.528051295,83.79080237,-50.535993215,1
123,123.0,-1.2892498735,1.0535180215,9.7276433205,9.869099144,-75.13986080000001,-1.2892498735,1.0535180215,9.7276433205,9.869099144,6.1811249625,-7.549677096,236.4,291.26666666666665,286.06666666666666,279.26666666666665,18.0,18.0,18.0,18.0,-9.19836879e-05,0.000118211854495,-0.00039903132025,0.00054586857005,-0.0044896498235,-0.0016490875075,0.05946023852,0.059779513765,0.0,0.0,0.0,9.7124632895,-50.745837255,140.74583725000002,97.54967709,83.81887503499999,-50.745837255,1
124,124.0,-1.2920558035,1.049973921,9.725557951,9.8670329395,-72.42474122,-1.2920558035,1.049973921,9.725557951,9.8670329395,6.1618018235,-7.567521807,230.0,292.0,278.0,282.0,21.0,21.0,21.0,21.0,0.00030131324185,0.0004842281662499,0.00082835688838,0.0015776183,-0.0046393700735,-0.0042234524645,0.057758738885,0.058178818965,1.0,0.0,0.0,9.7141413825,-50.90141199,140.901412,97.5675218,83.83819817,-50.90141199,1
125,125.0,-1.2919413355,1.0551484545,9.7263416155,9.868343539,-74.53522664,-1.2919413355,1.0551484545,9.7263416155,9.868343539,6.191439219499999,-7.566253291500001,-1.0,-1.0,-1.0,-1.0,20.0,20.0,20.0,20.0,0.0005523189971,0.002680257446585,-0.0021194383371,0.00349720100195,-0.0025870246085,-0.0027626596325,0.058985914675,0.05911375026,0.0,0.0,0.0,9.731575668,-50.760623980000005,140.760624,97.566253285,83.80856078,-50.760623980000005,0
126,126.0,-1.3374599145,1.0490875285,9.7192284665,9.866754267,-72.722434115,-1.3374599145,1.0490875285,9.7192284665,9.866754267,6.160610411,-7.835248141,-1.0,-1.0,-1.0,-1.0,19.0,19.0,19.0,19.0,-0.0012259914165,0.002251312527,0.003284892506,0.004195656224,-0.0097234208945,-0.0040223197111,0.0567943381199999,0.057893109135,0.0,0.0,0.0,9.920352122,-51.889789574999995,141.88978955,97.835248135,83.83938958499999,-51.889789574999995,0
127,127.0,-1.3167177535,1.0481732535,9.7239891545,9.868557916,-72.793864625,-1.3167177535,1.0481732535,9.7239891545,9.868557916,6.152305956499999,-7.711480195,-1.0,-1.0,-1.0,-1.0,20.0,20.0,20.0,20.0,-0.001686722339,-0.0045589282025,0.010279146275,0.011451777888,-0.00349317535745,-0.0029623635443,0.05928911574,0.059646581905,0.0,0.0,0.0,9.819191915,-51.4782338,141.4782338,97.71148019,83.84769404,-51.4782338,0
128,128.0,-1.286950244,0.9929615963,9.729238533,9.864091245,-72.9109566,-1.286950244,0.9929615963,9.729238533,9.864091245,5.827403685,-7.535144346,-1.0,-1.0,-1.0,-1.0,20.0,20.0,20.0,20.0,-0.01765387665,-0.00325130089,0.05224289667,0.05524084151,-0.02124271663,-0.01910151355,0.05407200063,0.06115473883,0.0,0.0,0.0,9.484947906,-52.34759552,142.3475955,97.53514434,84.17259631,-52.34759552,0
129,129.0,-1.2210402455,0.9886485066,9.741942996,9.867826435,-73.979238165,-1.2210402455,0.9886485066,9.741942996,9.867826435,5.794747878,-7.144100368,-1.0,-1.0,-1.0,-1.0,20.0,20.0,20.0,20.0,-0.0014845265586,-0.00035439712,0.0037395722855,0.004216391496,0.008768066113475,0.0025779886565,0.059492054245,0.06146752486,0.0,0.0,0.0,9.1616546795,-51.00349903,141.00349905000002,97.144100365,84.205252115,-51.00349903,0
130,130.0,-1.250976522,1.1691261425,9.7077787465,9.8579389615,-75.881947045,-1.250976522,1.1691261425,9.7077787465,9.8579389615,6.8680751135,-7.3433978875,-1.0,-1.0,-1.0,-1.0,19.0,19.0,19.0,19.0,0.0138780539749999,0.0047934353834999,0.008806152795,0.047030281255,0.0052769809924999,-0.0007927004349999,0.049091560175,0.05246124463,0.0,0.0,0.0,10.0049188925,-46.974645505,136.9746455,97.34339788,83.13192488,-46.974645505,0
131,131.0,-1.305055241,1.0759757325,9.7334782455,9.8794091275,-69.84852857,-1.305055241,1.0759757325,9.7334782455,9.8794091275,6.120517107,-7.550842729,-1.0,-1.0,-1.0,-1.0,19.0,19.0,19.0,19.0,0.025387110145,0.0108057805925,0.0012923153899999,0.0655300967999999,-0.0180092379,-0.021081755535,0.069059750035,0.074523484035,0.0,0.0,0.0,9.67576186,-51.02868738,141.0286874,97.55084272,83.87948289,-51.02868738,0
132,132.0,-1.4412162105,1.468776546,9.636487292,9.8539455055,-69.253852285,-1.4412162105,1.468776546,9.636487292,9.8539455055,8.6675964645,-8.5072680885,-1.0,-1.0,-1.0,-1.0,19.0,19.0,19.0,19.0,0.0248729042149999,0.0134906508819999,0.004303280602,0.029533358325,-0.004355188225,-0.012937033425,0.0437744806073499,0.05716887256,1.0,0.0,0.0,12.05544583,-44.45934575,134.45934575,98.507268085,81.332403535,-44.45934575,1
133,133.0,-1.4721049185,1.5177996015000002,9.646892126,9.876082394,-68.46775733999999,-1.4721049185,1.5177996015000002,9.646892126,9.876082394,8.939655542,-8.6773712305,-1.0,-1.0,-1.0,-1.0,20.0,20.0,20.0,20.0,-0.01517768965,0.0011226309295,-0.00859253767,0.01881078396,-0.001572706105,-0.023094172975,0.07552137049,0.093049318255,0.0,0.0,0.0,12.367267555,-44.139864655,134.13986465,98.677371225,81.060344455,-44.139864655,1
134,134.0,-1.3612266675,1.4811053200000002,9.65531285,9.862982787,-67.1903193,-1.3612266675,1.4811053200000002,9.65531285,9.862982787,8.721081134,-8.0241017485,-1.0,-1.0,-1.0,-1.0,21.0,21.0,21.0,21.0,0.0069543401119999,-0.02083628831,6.596000000011484e-08,0.051105670165,-0.0155249293825,-0.012779463856,0.05383778525,0.061996742435,0.0,0.0,0.0,11.774573415,-42.537580355,132.53758034999998,98.024101745,81.27891886,-42.537580355,1
135,135.0,-1.1489372432,1.6799726555,9.640913382,9.855008069,-63.362430265,-1.1489372432,1.6799726555,9.640913382,9.855008069,9.88455712,-6.793380748,-1.0,-1.0,-1.0,-1.0,18.0,18.0,18.0,18.0,0.041120586865,-0.084518099441,0.0240938331549999,0.10430911606,-0.01238137847,-0.017251771243,0.0527275939,0.064692189575,0.0,0.0,0.0,11.96436411,-34.331073105,124.3310731,96.79338074,80.115442875,-34.331073105,1
136,136.0,1.7319645376,3.1458640245,9.1851273705,9.9697733805,-63.03829024,1.7319645376,3.1458640245,9.1851273705,9.9697733805,18.996256195,10.8667331605,-1.0,-1.0,-1.0,-1.0,20.0,20.0,20.0,20.0,0.4036419828,-0.0271530476999999,0.05078190993,0.7768386994,0.055620774735,0.0006375428499999,0.19919308855,0.23769519805,0.0,0.0,0.0,21.55202741,25.545258105,64.454741885,79.13326683,71.003743805,25.545258105,1
137,137.0,-1.535120935,2.493422255,9.3077517835,9.763824001,-45.025025475,-1.535120935,2.493422255,9.3077517835,9.763824001,14.98133455,-9.360923253,-1.0,-1.0,-1.0,-1.0,19.0,19.0,19.0,19.0,-0.3314239718,0.0853541890999999,-0.101484998355,0.68070345315,0.0105031986749999,-0.05873923383,0.05120710575,0.2076654169,0.0,0.0,0.0,17.438895135,-31.59762692,121.59762695,99.360923225,75.01866544,-31.59762692,1
138,138.0,-0.0291305990775,2.1691524595,9.54407065,9.7875865415,-66.6717471,-0.0291305990775,2.1691524595,9.54407065,9.7875865415,12.806150765,-0.1766308514349999,-1.0,-1.0,-1.0,-1.0,21.0,21.0,21.0,21.0,-0.009629196165,-0.085709426585,-0.0234225636049999,0.113188841215,-0.04897937107,-0.07070861758,-0.0030575377249999,0.1295378255499999,0.0,0.0,0.0,12.80823347,-0.767688792995,90.76768879,90.176630845,77.19384922500001,-0.767688792995,1
139,139.0,0.96458237573,1.6250412975,9.499343073,9.741724279,-56.773452455,0.96458237573,1.6250412975,9.499343073,9.741724279,9.7260548125,5.643050736799999,-1.0,-1.0,-1.0,-1.0,19.0,19.0,19.0,19.0,0.00622905206,-0.20577025475,-0.034295142,0.38406243655,0.0782853804,-0.0640795221,-0.0521633605499999,0.4082801089,0.0,0.0,0.0,12.72842144,27.1684423925,62.831557605,84.35694925499999,80.27394518,27.1684423925,1
140,140.0,0.53125994495,1.790943361,9.6336842975,9.8823415605,-55.793170195,0.53125994495,1.790943361,9.6336842975,9.8823415605,10.6019837755,3.30670589,-1.0,-1.0,-1.0,-1.0,19.0,19.0,19.0,19.0,-0.122265745055,0.36120950615,0.0643413454799999,0.38963197305,-0.049451478785,-0.141109555482,0.146426553365,0.296565744,0.0,0.0,0.0,12.0914283065,6.169442270000001,83.830557715,86.693294105,79.39801621500001,6.169442270000001,1
141,141.0,-0.99946718565,1.161741499,9.744534665,9.864425245,-59.307289010000005,-0.99946718565,1.161741499,9.744534665,9.864425245,6.798629309500001,-5.856207807500001,-1.0,-1.0,-1.0,-1.0,18.0,18.0,18.0,18.0,-0.00610438315355,0.01052946292,0.037905430625,0.044472225415,-0.01962961171,-0.006797088668,0.05389320195,0.05970056124,1.0,0.0,0.0,8.941452917,-40.68725073,130.68725074999998,95.8562078,83.201370685,-40.68725073,1
142,142.0,-0.94865960515,1.14378032,9.757697,9.870222909,-69.62134437,-0.94865960515,1.14378032,9.757697,9.870222909,6.6855805625,-5.5529437765,-1.0,-1.0,-1.0,-1.0,20.0,20.0,20.0,20.0,-0.0007891211973999,-0.0019687670545499,-0.00148517671315,0.0028108342679999,0.00171271109,0.0008061024525,0.06082900864,0.06334335968,0.0,0.0,0.0,8.6599030665,-39.67093805,129.67093805000002,95.552943775,83.31441943,-39.67093805,0
143,143.0,-0.9636842436,1.135164413,9.7545021735,9.867502148,-74.87928653,-0.9636842436,1.135164413,9.7545021735,9.867502148,6.6378462445,-5.642158529,311.5,286.5,375.0,280.5,20.0,20.0,20.0,20.0,-0.0006796032551,0.00080304179,-2.6542093050000008e-05,0.0010629921968499,-0.0098384641484999,-0.001525598038905,0.057419990195,0.05830127062,0.0,0.0,0.0,8.6793759285,-40.329198735,130.32919875,95.642158525,83.36215375,-40.329198735,0
144,144.0,-0.97324084115,1.131781742,9.7542981855,9.867851048,-71.204710225,-0.97324084115,1.131781742,9.7542981855,9.867851048,6.6183811605,-5.6978609995,-1.0,-1.0,-1.0,-1.0,19.0,19.0,19.0,19.0,0.00049578701375,0.00097494646685,0.00046701932895,0.0018945474007,-0.007640824689,-0.00338387111975,0.0583852393849999,0.05915849498,3.0,0.0,0.0,8.700459761000001,-40.693117535,130.69311755,95.697860995,83.381618835,-40.693117535,0
145,145.0,-0.97221943575,1.1329865895,9.753342819499998,9.866943861,-67.05031335000001,-0.97221943575,1.1329865895,9.753342819499998,9.866943861,6.6260055275,-5.6924729435,-1.0,-1.0,-1.0,-1.0,21.0,21.0,21.0,21.0,-0.00020404174175,-0.000302009923633,0.000210297337325,0.0006363165066999,-0.006516364276,-0.0012972542360999,0.05706408967,0.05757024264,1.0,0.0,0.0,8.7027108485,-40.632808315000005,130.6328083,95.692472935,83.37399447,-40.632808315000005,0
146,146.0,-0.9726670344,1.1294468915,9.754714966000002,9.867938049,-62.793935815,-0.9726670344,1.1294468915,9.754714966000002,9.867938049,6.6045656845,-5.694283433000001,-1.0,-1.0,-1.0,-1.0,19.0,19.0,19.0,19.0,-0.0003463932993,3.4151364839e-05,-0.0003616540652,0.00056534855465,-0.008083598647,-0.0030829638,0.0582625969,0.05890318837,0.0,0.0,0.0,8.68776107,-40.734733255,130.73473325,95.69428343,83.39543431,-40.734733255,0
147,147.0,-0.9762566286,1.1319196905,9.752761675,9.8666454915,-73.908025545,-0.9762566286,1.1319196905,9.752761675,9.8666454915,6.620210611,-5.716297337,-1.0,-1.0,-1.0,-1.0,18.0,18.0,18.0,18.0,-3.29223717e-05,0.00039126955455,0.00046133014202,0.0015619787515,-0.006266285455,0.000310846153,0.0564709527,0.056889867345,0.0,0.0,0.0,8.713697633,-40.77704285,130.77704285,95.716297335,83.379789385,-40.77704285,0
148,148.0,-0.97516037885,1.1286294735000002,9.7554003055,9.8687677895,-72.92491344999999,-0.97516037885,1.1286294735000002,9.7554003055,9.8687677895,6.5993691025,-5.708385366,-1.0,-1.0,-1.0,-1.0,19.0,19.0,19.0,19.0,-0.00025741844075,-0.0013252735644,-0.0010321554067499,0.001837169915,-0.01197461254,-0.0011978916979499,0.058420230955,0.0596648389,0.0,0.0,0.0,8.692946689,-40.827724915000005,130.82772490000002,95.70838536,83.400630895,-40.827724915000005,0
149,149.0,-0.96020324705,1.128575175,9.7555866825,9.8674795985,-68.839574295,-0.96020324705,1.128575175,9.7555866825,9.8674795985,6.598931731,-5.6212906925,-1.0,-1.0,-1.0,-1.0,19.0,19.0,19.0,19.0,-3.2235021399999996e-05,-0.0010240668904499,-0.00155790146525,0.001883825849,-0.0104207930839999,0.00151693183475,0.0568207193849999,0.057808207385,0.0,0.0,0.0,8.6366690755,-40.391431805,130.39143180000002,95.621290685,83.40106826,-40.391431805,0
150,150.0,-0.95936968635,1.1233037835,9.7565332435,9.867732998,-68.90582672000001,-0.95936968635,1.1233037835,9.7565332435,9.867732998,6.567744798,-5.615897593,-1.0,-1.0,-1.0,-1.0,20.0,20.0,20.0,20.0,-0.00055174207245,0.00089038788755,0.0003289619149,0.001368852407,-0.0083015973205,0.000265282298,0.0573064510249999,0.057932222065,0.0,0.0,0.0,8.6097297315,-40.499304915,130.4993049,95.615897585,83.43225519500001,-40.499304915,0
151,151.0,-0.9646014539,1.122622847,9.7551977855,9.866845749,-72.809383995,-0.9646014539,1.122622847,9.7551977855,9.866845749,6.5646899625,-5.6470903895,-1.0,-1.0,-1.0,-1.0,19.0,19.0,19.0,19.0,-0.000813595462,0.000326374921,0.0012633471738,0.00292393422,-0.0110382733895,0.0019413565695,0.056263554255,0.05745779244,0.0,0.0,0.0,8.6274780385,-40.670233800000005,130.6702338,95.647090385,83.435310035,-40.670233800000005,0
152,152.0,-0.9646014539,1.110365982,9.757165752,9.8674125845,-68.750022825,-0.9646014539,1.110365982,9.757165752,9.8674125845,6.4923301680000005,-5.645965222999999,-1.0,-1.0,-1.0,-1.0,20.0,20.0,20.0,20.0,0.0002992165653,0.0004732368616,0.00176970476,0.002177485043,-0.004389651689,-0.0039148635089999,0.058004505385,0.059009448505,0.0,0.0,0.0,8.572738902000001,-40.97957509,130.97957509999998,95.64596522,83.507669825,-40.97957509,0
153,153.0,-0.9630326574,1.117537833,9.7553357335,9.8662510495,-74.81062781,-0.9630326574,1.117537833,9.7553357335,9.8662510495,6.537635761,-5.657827676,-1.0,-1.0,-1.0,-1.0,19.0,19.0,19.0,19.0,-0.0005916404703499,0.0004685348169,0.00043464914039,0.00136131532145,-0.00189729177995,0.00161330985675,0.056640865905,0.056728728955,0.0,0.0,0.0,8.614061102,-40.84265189,130.8426519,95.65782767,83.46236423,-40.84265189,0
154,154.0,-0.9769977345,1.114899202,9.752422674,9.864444881,-68.44750321,-0.9769977345,1.114899202,9.752422674,9.864444881,6.521753846,-5.720804265,-1.0,-1.0,-1.0,-1.0,21.0,21.0,21.0,21.0,-0.0006814337902,0.00197962583,0.001731794894,0.002717054285,-0.00725921218,0.0001400809428,0.0545277051,0.05500896661,0.0,0.0,0.0,8.643014058,-41.22842005,131.22842,95.72080426,83.47824615,-41.22842005,0
155,155.0,-0.96900553085,1.1179414055,9.7554135135,9.866960959,-70.681009055,-0.96900553085,1.1179414055,9.7554135135,9.866960959,6.5374100085,-5.6725754595,-1.0,-1.0,-1.0,-1.0,19.0,19.0,19.0,19.0,0.00038028907195,-0.0015914423975,0.0001608715872,0.0020160911159999,-0.003139490468,-0.0008991477045,0.057441045905,0.05759803344,0.0,0.0,0.0,8.623529592,-40.9174721,130.9174721,95.672575455,83.462589985,-40.9174721,0
156,156.0,-0.9637766984,1.1138088225,9.757353596,9.8678968385,-71.79323395,-0.9637766984,1.1138088225,9.757353596,9.8678968385,6.51216613,-5.6410580765,-1.0,-1.0,-1.0,-1.0,20.0,20.0,20.0,20.0,-0.00057502862925,0.000229039573,-0.00052414374325,0.002142384881,-0.0070998605055,-0.003191336496,0.058357700145,0.05890696985,0.0,0.0,0.0,8.584153686,-40.86953545,130.86953545,95.641058075,83.487833865,-40.86953545,0
157,157.0,-0.96946340225,1.111064529,9.756154619,9.866958959,-72.69384416,-0.96946340225,1.111064529,9.756154619,9.866958959,6.497049679,-5.6748188405,-1.0,-1.0,-1.0,-1.0,20.0,20.0,20.0,20.0,0.000177578678765,0.00112745187165,0.0006193257914,0.0013948475815,-0.004533653704,-0.0013977460892499,0.057358714815,0.05757810851,0.0,0.0,0.0,8.594717303500001,-41.10642552,131.1064255,95.674818835,83.50295031499999,-41.10642552,0
158,158.0,-0.9731513214,1.1097980454999998,9.755497163,9.866529858,-74.178964105,-0.9731513214,1.1097980454999998,9.755497163,9.866529858,6.4901406165,-5.6966454634999995,-1.0,-1.0,-1.0,-1.0,18.0,18.0,18.0,18.0,-0.0001992199104449,-0.00026408101174,-0.0003399987153,0.00073490105555,-0.0070369556435,-0.00209126097745,0.05674821964,0.05733576355,0.0,0.0,0.0,8.603773294,-41.24666521,131.2466652,95.69664546,83.509859375,-41.24666521,0
159,159.0,-0.96968940285,1.1081177164999998,9.756584607,9.867075218,-75.084103935,-0.96968940285,1.1081177164999998,9.756584607,9.867075218,6.479679604,-5.6758869425,-1.0,-1.0,-1.0,-1.0,19.0,19.0,19.0,19.0,8.272388994999999e-05,-0.0005987279731,-9.758007599999986e-06,0.000779542162,-0.007901429216,-0.0027066445965,0.05744173381,0.058064348115,0.0,0.0,0.0,8.582468272,-41.188454245,131.18845420000002,95.67588694,83.52032039,-41.188454245,0
160,160.0,-0.95856841145,1.1074720005,9.7569955175,9.8663223915,-70.25182645,-0.95856841145,1.1074720005,9.7569955175,9.8663223915,6.4756675875,-5.6109718985,-1.0,-1.0,-1.0,-1.0,19.0,19.0,19.0,19.0,1.0178449529e-05,-0.00107639929725,-0.00036576570365,0.00113695585075,-0.007475193708,-0.0028365122595,0.0564707406,0.057036579,0.0,0.0,0.0,8.537389064,-40.877609275,130.87760925,95.610971895,83.52433241,-40.877609275,0
161,161.0,-0.96082695005,1.104437135,9.7567254905,9.8659349845,-72.943356135,-0.96082695005,1.104437135,9.7567254905,9.8659349845,6.4582490225,-5.6242636885,-1.0,-1.0,-1.0,-1.0,19.0,19.0,19.0,19.0,1.5732067599999997e-05,0.0009119775506999,0.001124514632,0.0015058553034999,-0.009404015309,-0.0041669881385,0.056199154625,0.057159315225,0.0,0.0,0.0,8.5329623715,-41.02215502,131.02215505,95.62426368,83.541750975,-41.02215502,0
162,162.0,-0.96446937565,1.104881798,9.7567225555,9.8663369155,-75.05964391500001,-0.96446937565,1.104881798,9.7567225555,9.8663369155,6.4608297415,-5.6454473489999994,-1.0,-1.0,-1.0,-1.0,19.0,19.0,19.0,19.0,0.0007003158258,-0.0004730206042,-2.237294080000002e-05,0.0012588769592,-0.0085541375614999,-0.0051745293205,0.056648536075,0.05752716243,0.0,0.0,0.0,8.548623826,-41.118192879999995,131.1181929,95.645447345,83.53917025,-41.118192879999995,0
163,163.0,-0.95756314895,1.1060851779999998,9.759593057,9.868638863,-73.02211209000001,-0.95756314895,1.1060851779999998,9.759593057,9.868638863,6.4659202405,-5.603642813,-1.0,-1.0,-1.0,-1.0,20.0,20.0,20.0,20.0,-9.6549163555e-05,-0.0011346431967,-0.00015186746695,0.0012627030806,-0.01167161928,-0.005248605517,0.058865284325,0.0606935444,45.0,780.2666666666667,657.3111111111111,8.5253744415,-40.88318322,130.88318325,95.60364281,83.534079755,-40.88318322,0
164,164.0,-0.95453415365,1.1039352375,9.7585966,9.867118409,-65.45938522,-0.95453415365,1.1039352375,9.7585966,9.867118409,6.454111871,-5.5865985215,-1.0,-1.0,-1.0,-1.0,20.0,20.0,20.0,20.0,-0.000580147292365,-0.00038671445025,0.00012975890065,0.0013557023665,-0.013536766425,-0.004078772572,0.056869394585,0.058703862355,15.0,1190.4666666666667,540.4666666666667,8.505491025000001,-40.84870103,130.848701,95.586598515,83.545888125,-40.84870103,0
165,165.0,-0.9575220579,1.105379293,9.757845221,9.8668264725,-72.44510181999999,-0.9575220579,1.105379293,9.757845221,9.8668264725,6.462974072,-5.6044024645,-1.0,-1.0,-1.0,-1.0,17.0,17.0,17.0,17.0,0.000626137398,0.00080073127115,0.0008557785583999,0.0019563639595,-0.0121357785715,-0.0013971828647,0.0564186430499999,0.057823770815,33.0,1201.0,481.0,8.5236333165,-40.900504925,130.9005049,95.60440246,83.537025925,-40.900504925,0
166,166.0,-0.95710381,1.1018439975,9.7586919895,9.8672290665,-74.91885555,-0.95710381,1.1018439975,9.7586919895,9.8672290665,6.4419256705,-5.6014839785,-1.0,-1.0,-1.0,-1.0,18.0,18.0,18.0,18.0,0.0001460433408,-0.001417549447,-0.00068852535045,0.0015873528035,-0.01451975002,-0.005550741755,0.057005915605,0.05911913994,10.0,1201.0,481.0,8.506012980000001,-40.978389455,130.97838945,95.601483975,83.558074325,-40.978389455,0
167,167.0,-0.93788641985,1.116045348,9.7573726745,9.8656778025,-72.138165405,-0.93788641985,1.116045348,9.7573726745,9.8656778025,6.5251243115,-5.4904518115,-1.0,-1.0,-1.0,-1.0,18.0,18.0,18.0,18.0,-9.94146579999999e-05,-0.00280401955,0.0008071564508,0.0041515811809999,-0.021054682785,0.0010072158589999,0.05431204603,0.058970797215,41.0,1060.1707317073171,260.9512195121951,8.497465732,-40.043367575,130.04336755,95.49045181,83.47487568,-40.043367575,0
168,168.0,-0.9308848033,1.095404448,9.763159171,9.8684246045,-74.00695143,-0.9308848033,1.095404448,9.763159171,9.8684246045,6.401684626,-5.4464926495,-1.0,-1.0,-1.0,-1.0,18.0,18.0,18.0,18.0,-0.0008483048477,0.001221932053,0.0013459712452,0.002348372629,-0.0122757197805,-0.00427703976,0.058197234205,0.05985767961,23.0,1022.5217391304348,279.30434782608694,8.3761122035,-40.357546619999994,130.35754665000002,95.446492645,83.598315365,-40.357546619999994,0
169,169.0,-0.94085231105,1.095457279,9.760326825,9.866570377,-74.34092753499999,-0.94085231105,1.095457279,9.760326825,9.866570377,6.4038332535,-5.506046835499999,-1.0,-1.0,-1.0,-1.0,19.0,19.0,19.0,19.0,9.152180445e-05,-7.4141532145e-05,7.974035500000001e-05,0.0015848110525,-0.017360148235,-0.003374540655,0.055895552285,0.0586294056549999,0.0,0.0,0.0,8.4158156515,-40.658176195,130.6581762,95.50604683,83.59616674,-40.658176195,0
170,170.0,-0.9352947504,1.096653321,9.760935853,9.86677756,-74.346832295,-0.9352947504,1.096653321,9.760935853,9.86677756,6.4103703495,-5.4733813005,-1.0,-1.0,-1.0,-1.0,18.0,18.0,18.0,18.0,-0.000176990108,-0.0010116889369,-0.0008939818851,0.0014329949354999,-0.01753470697,-0.0030590769209999,0.056124149755,0.05891554622,35.0,1008.2857142857144,283.3142857142857,8.3997673605,-40.45956187,130.45956185,95.473381295,83.589629645,-40.45956187,0
171,171.0,-0.9301510351,1.0928083755,9.7620996095,9.867017603,-75.03816994499999,-0.9301510351,1.0928083755,9.7620996095,9.867017603,6.387326749,-5.4428181885,-1.0,-1.0,-1.0,-1.0,19.0,19.0,19.0,19.0,4.1196296245e-05,-0.0002348291956,0.0007606554506999,0.0012813259315,-0.0183487003,-0.0033319706315,0.0561053928,0.05930090064,0.0,0.0,0.0,8.3628050355,-40.402641425,130.40264144999998,95.442818185,83.612673245,-40.402641425,0
172,172.0,-0.92960657905,1.095719968,9.760982814,9.8661845395,-71.71750152,-0.92960657905,1.095719968,9.760982814,9.8661845395,6.404928593999999,-5.440272309999999,-1.0,-1.0,-1.0,-1.0,20.0,20.0,20.0,20.0,0.0001371795169999,0.0009665386431,0.0005354574542049,0.001399355944,-0.0149677105049999,-0.004690518879,0.0558695723,0.058098186845,0.0,0.0,0.0,8.374518932,-40.310700895,130.31070089999997,95.440272305,83.5950714,-40.310700895,0
173,173.0,-0.9383105379,1.09651097,9.7617738165,9.867876916,-74.360741685,-0.9383105379,1.09651097,9.7617738165,9.867876916,6.4089995680000005,-5.4904539735,-1.0,-1.0,-1.0,-1.0,21.0,21.0,21.0,21.0,0.000527215361275,-0.00037136988365,-0.0004305274535999,0.0009290518682,-0.017382880725,-0.005307612235,0.05730755168,0.060121413585,0.0,0.0,0.0,8.409684443,-40.55437118,130.5543712,95.490453965,83.591000425,-40.55437118,0
174,174.0,-0.9333502646,1.0981458055,9.761125165,9.8669464185,-75.31669054,-0.9333502646,1.0981458055,9.761125165,9.8669464185,6.418898218500001,-5.461966513,-1.0,-1.0,-1.0,-1.0,19.0,19.0,19.0,19.0,-0.00010278998355,-0.00041724094555,-0.000355390475725,0.0008250254684,-0.016976699875,-0.0032729732289999,0.05651117237,0.059097259545,0.0,0.0,0.0,8.3988842255,-40.362307495,130.3623075,95.46196651,83.58110177500001,-40.362307495,0
175,175.0,-0.93470773585,1.0947205755,9.761141308,9.8667104005,-71.27999102999999,-0.93470773585,1.0947205755,9.761141308,9.8667104005,6.399032931,-5.469852764500001,-1.0,-1.0,-1.0,-1.0,19.0,19.0,19.0,19.0,-6.710852304500001e-05,0.00078107760985,-0.0001464362329999,0.0015728719275,-0.0152941248749999,-0.0048791596575,0.05657988289,0.058834832865,23.0,1365.0,234.7826086956522,8.388953524000001,-40.4917429,130.49174290000002,95.46985276,83.600967065,-40.4917429,0
176,176.0,-0.9464700407,1.0948159655,9.760207955,9.866920429,-74.674123005,-0.9464700407,1.0948159655,9.760207955,9.866920429,6.4001927115,-5.538784182500001,-1.0,-1.0,-1.0,-1.0,17.0,17.0,17.0,17.0,0.00046410044085,-0.00037986843835,0.00096010136875,0.00122152743485,-0.02209385124,-0.0072626861154999,0.05617131156,0.061057787415,11.0,1411.0,256.90909090909093,8.4342473285,-40.8432232,130.8432232,95.53878418,83.599807285,-40.8432232,0
177,177.0,-0.9385277333,1.0965638015,9.7608301905,9.86696978,-75.177608435,-0.9385277333,1.0965638015,9.7608301905,9.86696978,6.409920145,-5.492245508,-1.0,-1.0,-1.0,-1.0,20.0,20.0,20.0,20.0,-4.9906239550000014e-05,-0.0009569205428,-0.0007128927027,0.001449694121,-0.020121839065,-0.0058110008935,0.05634252033,0.060202099085,29.0,1401.1379310344828,267.82758620689657,8.4115206325,-40.559577495,130.5595775,95.4922455,83.59007985,-40.559577495,0
178,178.0,-0.93310225095,1.0950625115,9.7616534785,9.8671031625,-72.71559056,-0.93310225095,1.0950625115,9.7616534785,9.8671031625,6.4006819555,-5.460230272,-1.0,-1.0,-1.0,-1.0,20.0,20.0,20.0,20.0,6.0807413649999984e-05,-0.0001633062539,0.0005420304072349,0.00101723121645,-0.02069345742,-0.0051917678575,0.056272474125,0.060193931935,0.0,0.0,0.0,8.384024059000001,-40.434317675,130.4343177,95.46023027,83.59931804,-40.434317675,0
179,179.0,-0.94430689195,1.0913613845,9.761913232,9.868015785,-67.286578925,-0.94430689195,1.0913613845,9.761913232,9.868015785,6.38270677,-5.524676102,-1.0,-1.0,-1.0,-1.0,19.0,19.0,19.0,19.0,0.00018099937635,0.000435015309,0.00027431837995,0.00095995665785,-0.02509058151,-0.009135562186,0.0569661258749999,0.0629215523449999,20.0,1420.0,270.0,8.411967825,-40.84890356,130.8489036,95.5246761,83.61729322,-40.84890356,0
180,180.0,-0.9451874138,1.09872695,9.757864299,9.864912358,-75.73477874,-0.9451874138,1.09872695,9.757864299,9.864912358,6.424394946,-5.532647473,-1.0,-1.0,-1.0,-1.0,18.0,18.0,18.0,18.0,-0.0006473672613,-0.0001415224933,-6.421437651e-05,0.0006657600718,-0.02424026737,-0.002241404004,0.05345155372,0.0587340025,11.0,1420.0,270.0,8.448389388,-40.70399048,130.7039905,95.53264747,83.57560505,-40.70399048,0
181,181.0,-0.94293181025,1.092642544,9.761351166,9.8674702585,-65.61311985,-0.94293181025,1.092642544,9.761351166,9.8674702585,6.386850386000001,-5.5175660965,-1.0,-1.0,-1.0,-1.0,18.0,18.0,18.0,18.0,0.0001575231561,-0.000771409923,-0.00101082659465,0.00164429631,-0.0263531136,-0.006191893967,0.0563918089149999,0.062615291635,41.0,1311.8536585365853,271.9756097560976,8.4104931215,-40.79364633,130.79364635000002,95.51756609,83.613149605,-40.79364633,0
182,182.0,-0.94281000475,1.0934599619999998,9.760780294,9.8669844,-74.432916965,-0.94281000475,1.0934599619999998,9.760780294,9.8669844,6.3919605315000005,-5.51717948,-1.0,-1.0,-1.0,-1.0,19.0,19.0,19.0,19.0,9.951517947e-05,0.00016696827245,0.00078189330576,0.00112901341915,-0.02699520667,-0.0048676300375,0.055565706265,0.06200598833,0.0,0.0,0.0,8.4140687085,-40.768793185,130.76879315,95.517179475,83.60803946499999,-40.768793185,0
183,183.0,-0.94911454145,1.0911838125,9.761352633,9.8679028215,-73.49263494,-0.94911454145,1.0911838125,9.761352633,9.8679028215,6.3783928925,-5.5535181625,-1.0,-1.0,-1.0,-1.0,20.0,20.0,20.0,20.0,0.0001348796067499,4.0424949999999976e-05,0.0005364899576,0.0011310929757,-0.028797876025,-0.0078292067875,0.05668533914,0.064067293055,41.0,1153.9268292682927,302.780487804878,8.427404601500001,-41.01682555,131.01682555000002,95.55351816,83.62160710500001,-41.01682555,0
184,184.0,-0.9492847757,1.0947469915,9.7605895145,9.867559327,-73.86241971999999,-0.9492847757,1.0947469915,9.7605895145,9.867559327,6.399544869,-5.5549378425,-1.0,-1.0,-1.0,-1.0,18.0,18.0,18.0,18.0,0.000118457566135,-0.0010359470046999,-0.00066466471298,0.001500840874,-0.031267499865,-0.0076280654355,0.056117712085,0.06469245261,36.0,1025.388888888889,367.1111111111111,8.444155357,-40.929347825,130.92934780000002,95.554937835,83.60045513,-40.929347825,0
185,185.0,-0.9448851013,1.0919645425,9.7613687765,9.867600236,-73.82419039999999,-0.9448851013,1.0919645425,9.7613687765,9.867600236,6.3829081045,-5.5289145699999995,-1.0,-1.0,-1.0,-1.0,19.0,19.0,19.0,19.0,-6.777685885000001e-05,5.63876021e-05,8.330600549999998e-06,0.000377019431,-0.03051656618,-0.0112020950285,0.05662843771,0.06542460892,0.0,0.0,0.0,8.414897424500001,-40.869878995,130.86987895,95.528914565,83.61709189,-40.869878995,0
186,186.0,-0.94664467755,1.0906951230000002,9.7601962145,9.866467904,-74.717018005,-0.94664467755,1.0906951230000002,9.7601962145,9.866467904,6.376308958999999,-5.5398084595,-1.0,-1.0,-1.0,-1.0,20.0,20.0,20.0,20.0,0.00034571039335,0.0004828937532,0.00055672078365,0.00086989547415,-0.03059042311,-0.01153193962,0.055462210545,0.06438506675,0.0,0.0,0.0,8.4169749195,-40.955552620000006,130.9555526,95.539808455,83.62369103500001,-40.955552620000006,0
187,187.0,-0.9522227837,1.091993893,9.7603869945,9.867337204,-74.03572202000001,-0.9522227837,1.091993893,9.7603869945,9.867337204,6.3837161375,-5.572139926,-1.0,-1.0,-1.0,-1.0,19.0,19.0,19.0,19.0,0.0006121956612,9.8862433e-05,0.0001049734007999,0.00119947482565,-0.030573218965,-0.011505997615,0.0560387001499999,0.06488268871,0.0,0.0,0.0,8.4434609785,-41.088544505,131.0885445,95.572139925,83.616283855,-41.088544505,0
188,188.0,-0.95123219655,1.0953765645,9.7601169675,9.867349916,-73.35587415500001,-0.95123219655,1.0953765645,9.7601169675,9.867349916,6.403502086,-5.566529756,-1.0,-1.0,-1.0,-1.0,19.0,19.0,19.0,19.0,-1.5417301075e-05,-0.0006976752284,-0.00039117755005,0.0008137546466,-0.03174633022,-0.0113078665749999,0.056124820465,0.06551013752,0.0,0.0,0.0,8.45464127,-40.97105571,130.9710557,95.566529755,83.59649791000001,-40.97105571,0
189,189.0,-0.94693671735,1.0934614295,9.7598997725,9.866508591,-75.301820945,-0.94693671735,1.0934614295,9.7598997725,9.866508591,6.3925399295,-5.5416747885,-1.0,-1.0,-1.0,-1.0,19.0,19.0,19.0,19.0,-0.00016168959885,-0.00013385032415,0.00028438730319,0.000730230922,-0.03038324823,-0.00849562098,0.05513586139,0.06354737863,0.0,0.0,0.0,8.430323354,-40.892522275,130.8925223,95.54167478,83.60746007,-40.892522275,0
190,190.0,-0.9509137412,1.0939193005,9.7597618235,9.8668054675,-75.19165329500001,-0.9509137412,1.0939193005,9.7597618235,9.8668054675,6.395284844,-5.5648818989999995,-1.0,-1.0,-1.0,-1.0,18.0,18.0,18.0,18.0,-0.00047522585145,0.00046194407075,0.00111814509575,0.0013275974744999,-0.02924219061,-0.0076814105295,0.05564089458,0.06333934788,0.0,0.0,0.0,8.4473978915,-40.999526805,130.9995268,95.564881895,83.60471515,-40.999526805,0
191,191.0,-0.9510795728,1.0921245035,9.7595725115,9.8664363835,-74.70822033,-0.9510795728,1.0921245035,9.7595725115,9.8664363835,6.3850018835,-5.565952504,-1.0,-1.0,-1.0,-1.0,19.0,19.0,19.0,19.0,0.00031284674765,-1.022846703e-05,-0.0002934786893,0.00103081730375,-0.02693834823,-0.0116324615675,0.05585233448,0.06319383232,0.0,0.0,0.0,8.4404342405,-41.051364135,131.0513641,95.565952495,83.61499811499999,-41.051364135,0
192,192.0,-0.94594172755,1.142748642,9.750080486,9.8624544105,-67.85163767,-0.94594172755,1.142748642,9.750080486,9.8624544105,6.685141541,-5.541204711000001,-1.0,-1.0,-1.0,-1.0,18.0,18.0,18.0,18.0,0.010974043526,0.0002863888693499,0.0134922554545,0.0186279841164999,-0.0207065255195,-0.008262537058,0.051642453865,0.0592639516649999,0.0,0.0,0.0,8.656130446999999,-39.6508509,129.6508509,95.541204705,83.314858455,-39.6508509,0
193,193.0,-0.96468510345,1.105978048,9.7632824435,9.872974882,-74.238811365,-0.96468510345,1.105978048,9.7632824435,9.872974882,6.462862606,-5.6429057225,-1.0,-1.0,-1.0,-1.0,17.0,17.0,17.0,17.0,-0.01059032289195,0.00106885418405,-0.01078375988105,0.015364388803,-0.031819330845,-0.012432701042,0.06240916708,0.071612845685,0.0,0.0,0.0,8.5485117375,-41.095130155,131.09513015,95.64290572,83.53713739,-41.095130155,0
194,194.0,-0.9664887058,1.0972975695,9.7584175605,9.8673647345,-69.53528437,-0.9664887058,1.0972975695,9.7584175605,9.8673647345,6.415746088500001,-5.65621541,-1.0,-1.0,-1.0,-1.0,19.0,19.0,19.0,19.0,0.0005560247707,0.000133564787,0.0001218339802999,0.00076063534415,-0.02848991837,-0.009334733688,0.05637938645,0.06392928447,1.0,0.0,0.0,8.5220746325,-41.373192794999994,131.37319275,95.656215405,83.584253905,-41.373192794999994,1
195,195.0,-0.9666295893,1.0984246375,9.7575429085,9.866638516,-72.48581860499999,-0.9666295893,1.0984246375,9.7575429085,9.866638516,6.4228515315,-5.657538344,-1.0,-1.0,-1.0,-1.0,21.0,21.0,21.0,21.0,0.0001873195893,-0.00022551823435,0.00015609924835,0.0006326120243499,-0.029966851235,-0.0088951599335,0.055224681745,0.06345795804,0.0,0.0,0.0,8.5281999645,-41.34822081,131.3482208,95.65753834,83.577148465,-41.34822081,1
196,196.0,-0.9544563742,1.125484543,9.7536935605,9.8647204925,-72.304822925,-0.9544563742,1.125484543,9.7536935605,9.8647204925,6.582267161,-5.5889221425,-1.0,-1.0,-1.0,-1.0,21.0,21.0,21.0,21.0,0.000938260524,-0.00086671224566,-0.0013954037199999,0.017228846475,-0.0210539948755,-0.0088872403955,0.054679062,0.06062596533,0.0,0.0,0.0,8.604339247,-40.299717435000005,130.29971740000002,95.588922135,83.41773283500001,-40.299717435000005,1
197,197.0,-0.94540020665,1.1031486375,9.7610062945,9.868539524,-71.99399504,-0.94540020665,1.1031486375,9.7610062945,9.868539524,6.447959840999999,-5.5321369775,-1.0,-1.0,-1.0,-1.0,21.0,21.0,21.0,21.0,-0.0011012769285,-0.0003160462469999,0.00356578889425,0.0052532723595,-0.021177198435,-0.0103417704024999,0.058245548255,0.063446717215,0.0,0.0,0.0,8.4659784155,-40.595992315,130.5959923,95.53213697,83.552040155,-40.595992315,1
198,198.0,-0.9489633852,1.1007022545,9.75971046,9.86732125,-74.91007969,-0.9489633852,1.1007022545,9.75971046,9.86732125,6.4346410005,-5.553568154000001,-1.0,-1.0,-1.0,-1.0,20.0,20.0,20.0,20.0,-0.0007080317969499,0.00029263026585,0.0001136302176999,0.0016390787515,-0.02018558375,-0.0065846233535,0.056468367315,0.06036428545,0.0,0.0,0.0,8.469564368,-40.76607947,130.7660795,95.55356815,83.565358995,-40.76607947,1
199,199.0,-0.94284962825,1.102014232,9.757564921499998,9.8647763375,-73.052832865,-0.94284962825,1.102014232,9.757564921499998,9.8647763375,6.4436505660000005,-5.519195528,-1.0,-1.0,-1.0,-1.0,20.0,20.0,20.0,20.0,-2.8116434500000012e-05,-0.0001507722259,0.006043049032,0.006308954973,-0.02019759204,-0.0109992382085,0.0549479249999999,0.05995819542,0.0,0.0,0.0,8.454899648000001,-40.549951995,130.54995194999998,95.519195525,83.55634943000001,-40.549951995,1
200,200.0,-0.94654635265,1.0859447075,9.76393403,9.8696359525,-71.754335965,-0.94654635265,1.0859447075,9.76393403,9.8696359525,6.3463575515,-5.537139838,-1.0,-1.0,-1.0,-1.0,20.0,20.0,20.0,20.0,-0.0004025751807,-0.0004705886124999,-0.0010698921043,0.002447792445,-0.02330537068,-0.011302798991,0.059361380445,0.065048939815,1.0,0.0,0.0,8.3928940675,-41.07551841,131.07551840000002,95.53713983,83.653642445,-41.07551841,1
201,201.0,-0.947428342,1.0887271565,9.7603708515,9.8665034665,-72.54930859,-0.947428342,1.0887271565,9.7603708515,9.8665034665,6.36478662,-5.544258536999999,-1.0,-1.0,-1.0,-1.0,19.0,19.0,19.0,19.0,0.00141608666905,0.0015768362085,-0.0025991412225,0.003602873099,-0.019767098665,-0.011418740103,0.056512708695,0.06136167827,0.0,0.0,0.0,8.4114338185,-41.02974517,131.0297452,95.54425853,83.635213375,-41.02974517,0
202,202.0,-0.9518280164,1.115141346,9.757823208,9.867352764,-67.11120596500001,-0.9518280164,1.115141346,9.757823208,9.867352764,6.519577842,-5.5712978125,-1.0,-1.0,-1.0,-1.0,20.0,20.0,20.0,20.0,0.0037135363915,-0.0006408365314999,-0.003661293233,0.005753642708,-0.019443757675,-0.0101903411305,0.057312424355,0.0628119015,0.0,0.0,0.0,8.544844426000001,-40.482642889999994,130.4826429,95.57129781,83.480422155,-40.482642889999994,0
203,203.0,-0.9954534732,1.136514547,9.748880041,9.865368124,-68.00298555500001,-0.9954534732,1.136514547,9.748880041,9.865368124,6.64947128,-5.830245463,-1.0,-1.0,-1.0,-1.0,20.0,20.0,20.0,20.0,0.00077591974995,0.0079705637525,-0.003021818271,0.0090119919295,-0.0322321700649999,-0.0062999477895,0.0533236200849999,0.065760951685,0.0,0.0,0.0,8.8116445195,-41.18705411,131.1870541,95.830245455,83.350528715,-41.18705411,0
204,204.0,-0.99862922215,1.131871262,9.7524006605,9.868521582,-64.92416599,-0.99862922215,1.131871262,9.7524006605,9.868521582,6.6201742845,-5.8466118915,270.0,310.0,343.0,306.0,18.0,18.0,18.0,18.0,-0.002921479494,-0.00470659472645,0.006767503443,0.01433385081,-4.7670575000000395e-05,-0.008857652481,0.0603770188749999,0.06314025156,36.0,1163.5,513.1388888888889,8.798195197,-41.42135763,131.42135765,95.846611885,83.37982571,-41.42135763,0
205,205.0,-0.9840477798,1.119633475,9.755657124,9.86887912,-66.507211265,-0.9840477798,1.119633475,9.755657124,9.86887912,6.547055012,-5.759911534,270.53846153846155,314.0769230769231,343.2307692307692,309.3076923076923,20.0,20.0,20.0,20.0,0.003212340432,0.0009216439235,-0.001506473887,0.003665790794,-0.01684671971,-0.01109991135,0.0594974142,0.0628248541,12.0,1300.5,448.1666666666667,8.687307655,-41.31229398,131.312294,95.75991153,83.45294498,-41.31229398,0
206,206.0,-0.9701648847,1.121398921,9.754666537,9.866726849,-63.61344045,-0.9701648847,1.121398921,9.754666537,9.866726849,6.5579483925,-5.6797578075,269.5,310.5,341.0,304.5,18.0,18.0,18.0,18.0,-0.00026029052998,-0.003128954818,-0.00245031008175,0.003990583392,-0.0199543622,-0.0085930201125,0.05636439006,0.06048066075,79.0,1010.987341772152,360.8987341772152,8.643481722499999,-40.864169005,130.864169,95.6797578,83.4420516,-40.864169005,0
207,207.0,-0.95656669165,1.1188938364999998,9.7574416485,9.8678575635,-74.788074795,-0.95656669165,1.1188938364999998,9.7574416485,9.8678575635,6.539207149,-5.607203607,-1.0,-1.0,-1.0,-1.0,20.0,20.0,20.0,20.0,-2.637736305000001e-05,0.0003762859486,-0.0002665267162,0.0010468541692,-0.01181843742,-0.0097128701125,0.058471399825,0.06044746112,50.0,1048.52,314.4,8.58264558,-40.57953385,130.5795338,95.6072036,83.46079285,-40.57953385,0
208,208.0,-0.96213305755,1.116865701,9.755902203000002,9.866647258,-74.38442446,-0.96213305755,1.116865701,9.755902203000002,9.866647258,6.530851288999999,-5.632329604,-1.0,-1.0,-1.0,-1.0,17.0,17.0,17.0,17.0,9.82183767e-05,0.0004325183668,0.00036230145534,0.00084034106835,-0.015403658415,-0.008633054909,0.056966790855,0.0597417897449999,35.0,1148.3714285714286,309.6857142857143,8.59254854,-40.74359269,130.74359270000002,95.6323296,83.46914871000001,-40.74359269,0
209,209.0,-0.96648283565,1.117815197,9.756110593,9.8673853765,-74.802353905,-0.96648283565,1.117815197,9.756110593,9.8673853765,6.536213642,-5.6575104935,-1.0,-1.0,-1.0,-1.0,18.0,18.0,18.0,18.0,0.0001313727663999,1.4842890749999996e-05,2.8023955100000024e-05,0.00078743002105,-0.01497413098,-0.009405358877,0.05739055348,0.06006549149,12.0,1223.1666666666667,239.58333333333337,8.612791574,-40.84727176,130.84727175,95.657510485,83.463786355,-40.84727176,0
210,210.0,-0.96276996835,1.1196217345,9.755905138,9.8670241625,-73.421289055,-0.96276996835,1.1196217345,9.755905138,9.8670241625,6.5468229605,-5.636034946500001,-1.0,-1.0,-1.0,-1.0,19.0,19.0,19.0,19.0,-0.00023191919845,-0.000189369508995,-0.0001982124271,0.00068010885855,-0.01305453881,-0.0070440296285,0.057323860825,0.059263508725,40.0,1238.025,243.375,8.606906132999999,-40.69246899,130.69246900000002,95.63603494,83.453177035,-40.69246899,0
211,211.0,-0.964385726,1.1153644109999998,9.756364477,9.867153935,-72.69493288999999,-0.964385726,1.1153644109999998,9.756364477,9.867153935,6.5218383755,-5.6451682745,-1.0,-1.0,-1.0,-1.0,19.0,19.0,19.0,19.0,-5.4477748250000006e-05,0.00058506174905,0.00085081268265,0.0010577182074999,-0.010833256105,-0.008302265881,0.05762686698,0.0592305777099999,19.0,1318.0,247.21052631578948,8.5940531475,-40.84790024,130.84790025,95.64516827,83.47816162000001,-40.84790024,0
212,212.0,-0.97096762715,1.1181277825,9.7538681975,9.865644722,-72.69355802999999,-0.97096762715,1.1181277825,9.7538681975,9.865644722,6.5395158129999995,-5.684888303499999,273.375,308.0,344.125,300.375,20.0,20.0,20.0,20.0,0.00030580454725,-0.00029694508105,-0.000138468389855,0.00074834316225,-0.013582070165,-0.006783113394,0.05577653278,0.0578666089,53.0,1009.566037735849,257.33962264150944,8.632983574499999,-40.970505315,130.9705053,95.684888295,83.46048418000001,-40.970505315,0
213,213.0,-0.96574906745,1.1155478535,9.7560929825,9.8670398345,-74.786209785,-0.96574906745,1.1155478535,9.7560929825,9.8670398345,6.52308199,-5.653253701500001,-1.0,-1.0,-1.0,-1.0,18.0,18.0,18.0,18.0,-0.00062248574165,-0.0006726659736,0.00077232592925,0.00159575844745,-0.0134024244949999,-0.007943735541,0.057196907455,0.05928876135,21.0,1162.142857142857,266.7142857142857,8.600205614,-40.883287445,130.88328745,95.6532537,83.476918005,-40.883287445,0
214,214.0,-0.96592663935,1.1124381435,9.756028411,9.866642813,-74.33571494,-0.96592663935,1.1124381435,9.756028411,9.866642813,6.5050959895,-5.654322934,-1.0,-1.0,-1.0,-1.0,20.0,20.0,20.0,20.0,0.000312939512195,-0.0003803683416,0.00014560788815,0.00095319531365,-0.01532041943,-0.0079560010805,0.056753149645,0.05942550182,24.0,1061.625,274.5416666666667,8.587471996000001,-40.967707655,130.96770765000002,95.654322925,83.494904005,-40.967707655,0
215,215.0,-0.96285655305,1.1138249655,9.756521503,9.866986975,-74.38087597500001,-0.96285655305,1.1138249655,9.756521503,9.866986975,6.512810937499999,-5.636182723999999,274.0,307.5,345.0,299.0,18.0,18.0,18.0,18.0,0.00033359138488,-0.00061604207695,-0.0002763039186,0.00108479941105,-0.01535896448,-0.0105326970405,0.05757681596,0.06068225968,29.0,665.7586206896551,584.551724137931,8.581527846,-40.842145875,130.84214585,95.63618272,83.48718906,-40.842145875,0
216,216.0,-0.95856107375,1.1201940735,9.755638046,9.8664196865,-72.631318255,-0.95856107375,1.1201940735,9.755638046,9.8664196865,6.5503162915,-5.611702772999999,294.0,313.0,367.0,305.0,20.0,20.0,20.0,20.0,-8.400294500000003e-06,0.001476820993,-0.002809910919,0.003534083201,-0.0128352768225,-0.0050154399105,0.056399232585,0.05825526691,1.0,0.0,0.0,8.594046702,-40.553119955,130.55311995,95.611702765,83.449683705,-40.553119955,0
217,217.0,-0.98798224505,1.117066754,9.754588758,9.86792907,-70.05575920499999,-0.98798224505,1.117066754,9.754588758,9.86792907,6.532885433500001,-5.783408582,311.75,311.0,382.25,302.5,19.0,19.0,19.0,19.0,0.0001250505315,0.0009929036207499,0.0018656058145999,0.0027179321844999,-0.02067661228,-0.007688210786,0.057531832525,0.06206976065,3.0,0.0,0.0,8.692270004000001,-41.490640709999994,131.4906407,95.783408575,83.46711456,-41.490640709999994,0
218,218.0,-0.98776504965,1.1184433029999998,9.754163172,9.8676403925,-71.37311288500001,-0.98776504965,1.1184433029999998,9.754163172,9.8676403925,6.541149497,-5.782402854000001,322.8,312.2,393.0,305.6,22.0,22.0,22.0,22.0,0.00061347336714,-0.0002145296974,-0.0004031806545,0.0010000460599,-0.01926228117,-0.0080163613975,0.05701720876,0.0608358880649999,0.0,0.0,0.0,8.697599186,-41.449502915,131.44950295,95.78240285,83.45885050000001,-41.449502915,0
219,219.0,-0.99347083145,1.1531417350000002,9.7501347845,9.8682692815,-61.59880185,-0.99347083145,1.1531417350000002,9.7501347845,9.8682692815,6.744949193,-5.8179623204999995,322.0,314.0,392.0,307.5,20.0,20.0,20.0,20.0,0.011336207458,0.00214365113955,0.004712821352,0.0162827764895,-0.017001038195,-0.010495528528,0.05893615602,0.062277402905,3.0,0.0,0.0,8.873168774500002,-40.75605808,130.75605804999998,95.817962315,83.255050805,-40.75605808,0
220,220.0,-1.0145197075,1.1966072305,9.7392471315,9.8648148825,-59.081836615,-1.0145197075,1.1966072305,9.7392471315,9.8648148825,7.004519869,-5.9469448205,-1.0,-1.0,-1.0,-1.0,19.0,19.0,19.0,19.0,-0.0058557567135,-0.0016063646638,-0.0074346084815,0.010086491715,-0.0289926291549999,-0.0013207419849999,0.052480331205,0.0601224552249999,5.0,0.0,0.0,9.1510797075,-40.29818401,130.298184,95.946944815,82.99548013,-40.29818401,0
221,221.0,-1.01062046255,1.1535276975,9.746288371,9.866251536,-65.131292965,-1.01062046255,1.1535276975,9.746288371,9.866251536,6.749837510000001,-5.920037803,-1.0,-1.0,-1.0,-1.0,18.0,18.0,18.0,18.0,-0.003063956575,0.0026001107045,0.0054274575225,0.0070318767505,-0.020835081859,-0.005060140298,0.05554821621,0.060777990645,5.0,0.0,0.0,8.943748641500001,-41.216377995,131.21637800000002,95.9200378,83.25016249000001,-41.216377995,0
222,222.0,-1.045458311,1.1722740085,9.7422321005,9.868071198,-65.97457144500001,-1.045458311,1.1722740085,9.7422321005,9.868071198,6.8613798835,-6.125123180499999,-1.0,-1.0,-1.0,-1.0,19.0,19.0,19.0,19.0,0.0050318246941499,0.0013404713395,-0.0017558471320499,0.0075072085224999,-0.0208324506125,-0.0077976748175,0.057336225965,0.06399422322,4.0,0.0,0.0,9.1592326125,-41.72195315,131.72195315,96.125123175,83.13862011,-41.72195315,0
223,223.0,-1.020598243,1.180206043,9.7426430105,9.86680525,-63.689795454999995,-1.020598243,1.180206043,9.7426430105,9.86680525,6.907057211,-5.980263562999999,-1.0,-1.0,-1.0,-1.0,21.0,21.0,21.0,21.0,-0.0024758764705,-0.004094674567,-0.0021810259525,0.0061227603465,-0.02418077983,-0.0006565462974999,0.054873630965,0.0603693504149999,0.0,0.0,0.0,9.098849706,-40.8493601,130.8493601,95.980263555,83.09294278499999,-40.8493601,0
224,224.0,-0.9930041549,1.145553104,9.748724482,9.8659007175,-73.28706807,-0.9930041549,1.145553104,9.748724482,9.8659007175,6.701978403,-5.8160813135,324.0,310.0,391.0,301.0,19.0,19.0,19.0,19.0,-0.002615933569,-0.0006122510554,0.002850141351,0.003922019318,-0.01929673388,-0.0089799158975,0.05585480522,0.060264605725,0.0,0.0,0.0,8.83933933,-40.91983055,130.91983055,95.81608131,83.29802158999999,-40.91983055,0
225,225.0,-0.99275760875,1.135716207,9.7525254015,9.86849387,-75.157737425,-0.99275760875,1.135716207,9.7525254015,9.86849387,6.6423783069999995,-5.8123977945,-1.0,-1.0,-1.0,-1.0,19.0,19.0,19.0,19.0,-0.00044155962475,-0.0003808677943,0.0001191814731499,0.0011669408712,-0.023878156325,-0.005980244108,0.0574578480499999,0.06253344139,0.0,0.0,0.0,8.792418561,-41.157500975000005,131.15750095,95.81239779,83.357621685,-41.157500975000005,0
226,226.0,-0.98881727335,1.1375344845000002,9.751809244,9.86760123,-74.78346877999999,-0.98881727335,1.1375344845000002,9.751809244,9.86760123,6.653401745,-5.7899156505,-1.0,-1.0,-1.0,-1.0,21.0,21.0,21.0,21.0,0.00040171872455,-0.00130422203345,-0.0003187658023499,0.001703974098,-0.02236698715,-0.0018226803049999,0.056307328115,0.060642894385,0.0,0.0,0.0,8.7860934285,-40.998955069999994,130.9989551,95.789915645,83.34659825,-40.998955069999994,0
227,227.0,-0.97617444655,1.1341459435,9.751621399,9.8657716955,-74.81499374,-0.97617444655,1.1341459435,9.751621399,9.8657716955,6.633885978,-5.7164853815,327.0,312.0,392.0,300.0,19.0,19.0,19.0,19.0,-0.001620742246,-7.82729453e-05,0.003749487531,0.0041743861345,-0.019979172735,0.0001647539,0.054406902775,0.05878684084,0.0,0.0,0.0,8.724181726000001,-40.717419085,130.7174191,95.71648538,83.366114015,-40.717419085,0
228,228.0,-0.98348424575,1.1249210085,9.753714106,9.867504369,-73.644151465,-0.98348424575,1.1249210085,9.753714106,9.867504369,6.557946408,-5.749159241,332.0,310.0,397.0,300.0,20.0,20.0,20.0,20.0,-0.000220047513155,0.0008309293496,0.0009872805573195,0.0014904677654,-0.02264443897,-0.0024715779285,0.05619474628,0.060753849585,4.0,0.0,0.0,8.688413803,-41.21123504,131.211235,95.74915924,83.44205359,-41.21123504,0
229,229.0,-0.9872778275,1.1262388565,9.7545285885,9.8688378585,-62.42172809,-0.9872778275,1.1262388565,9.7545285885,9.8688378585,6.5860965305,-5.7793542075,-1.0,-1.0,-1.0,-1.0,19.0,19.0,19.0,19.0,0.0008506952606,-0.0014496494758,-0.0008922377670999,0.0023028324095,-0.02947345372,-0.0036931128709999,0.057052590145,0.064344802015,2.0,0.0,0.0,8.7290174235,-41.238306515000005,131.23830650000002,95.779354205,83.413903465,-41.238306515000005,0
230,230.0,-0.9863195263,1.12786929,9.7520499195,9.866509685,-73.56452571,-0.9863195263,1.12786929,9.7520499195,9.866509685,6.5972013935,-5.7752984125,321.3333333333333,309.0,387.3333333333333,298.3333333333333,20.0,20.0,20.0,20.0,0.00095595034785,0.000731688331,-0.0068148105569999,0.007225427312,-0.022833392888,-0.00228551895285,0.05524980184,0.0615870443549999,5.0,0.0,0.0,8.7354257125,-41.16248927,131.16248925,95.775298405,83.4027986,-41.16248927,0
231,231.0,-1.003730379,1.138362175,9.75225244,9.869638836,-66.14103470500001,-1.003730379,1.138362175,9.75225244,9.869638836,6.657899234,-5.876358027,-1.0,-1.0,-1.0,-1.0,19.0,19.0,19.0,19.0,0.006101126171,0.004201192879,-0.006641745759,0.009949198404,-0.02362482069,-0.004905739409,0.05809867996,0.06290989624,4.0,0.0,0.0,8.845599552,-41.40365648,131.4036565,95.87635802,83.34210076,-41.40365648,0
232,232.0,-1.0252518015,1.1516624585,9.7457747335,9.8669955745,-63.90720271,-1.0252518015,1.1516624585,9.7457747335,9.8669955745,6.739414782,-6.00540461,-1.0,-1.0,-1.0,-1.0,20.0,20.0,20.0,20.0,-0.00083699552626,0.0004045040104,0.0037119995696,0.0039596137863,-0.02972536266,0.0013482819405,0.054350310895,0.062104027535,4.0,0.0,0.0,8.990405568,-41.67671991,131.6767199,96.005404605,83.26058521,-41.67671991,0
233,233.0,-1.0115670235,1.1473317585,9.746769723,9.866062165,-66.87945680499999,-1.0115670235,1.1473317585,9.746769723,9.866062165,6.7136229305,-5.9252181235000005,-1.0,-1.0,-1.0,-1.0,19.0,19.0,19.0,19.0,-0.0005683935083,-0.0025904252265,0.0003394893660999,0.002846711752,-0.0294826036099999,-0.0011179912155,0.053794492925,0.061427908745,0.0,0.0,0.0,8.9188773035,-41.401370635,131.40137065,95.92521812,83.286377065,-41.401370635,0
234,234.0,-0.99239219215,1.140145232,9.750544227,9.8670116315,-75.17311457,-0.99239219215,1.140145232,9.750544227,9.8670116315,6.6693922279999995,-5.811442272,313.0,307.0,380.0,297.0,20.0,20.0,20.0,20.0,-0.00071678491645,-0.0014422550712,0.001206241717085,0.0020870439769,-0.02840396215,-0.00051744204,0.055130146025,0.06213543544,0.0,0.0,0.0,8.8120073425,-41.036357065,131.03635709999998,95.811442265,83.330607765,-41.036357065,0
235,235.0,-0.9881539468,1.137088354,9.753835911,9.869485515,-69.986085825,-0.9881539468,1.137088354,9.753835911,9.869485515,6.6494424745,-5.784862238,-1.0,-1.0,-1.0,-1.0,19.0,19.0,19.0,19.0,6.802110049999996e-05,0.00434768652675,-0.0013504107115,0.0057058337475,-0.02130850282,0.000521188271,0.058237390815,0.062629287065,5.0,0.0,0.0,8.7798575015,-40.99131051,130.9913105,95.784862235,83.35055752,-40.99131051,0
236,236.0,-1.0368013135,1.144647634,9.742353906,9.864022076,-69.5438397,-1.0368013135,1.144647634,9.742353906,9.864022076,6.7010566615,-6.0746692509999995,-1.0,-1.0,-1.0,-1.0,19.0,19.0,19.0,19.0,0.003282666718,-0.000728067199,-0.0074917546645,0.0083293131614999,-0.035001387035,-0.0057878599665,0.051559274355,0.064105251255,3.0,0.0,0.0,9.008117566,-42.173270995,132.173271,96.074669245,83.29894333499999,-42.173270995,0
237,237.0,-1.0383994605,1.1487053724999998,9.743928573,9.866203372,-61.72803614,-1.0383994605,1.1487053724999998,9.743928573,9.866203372,6.7235359905,-6.0829940085,-1.0,-1.0,-1.0,-1.0,19.0,19.0,19.0,19.0,0.00088517847435,-0.0002702203654999,-8.428661500000002e-05,0.003634814313,-0.034874516785,-0.0080571586265,0.054418379365,0.0652812822649999,6.0,0.0,0.0,9.0298091,-42.112771640000005,132.11277165,96.082994005,83.27646400500001,-42.112771640000005,0
238,238.0,-1.0385652925,1.158931167,9.7447371855,9.8682148605,-56.204402044999995,-1.0385652925,1.158931167,9.7447371855,9.8682148605,6.7822722035,-6.0834505215,318.0,310.0,383.0,300.0,19.0,19.0,19.0,19.0,-0.00034863428285,0.00062273859465,0.003752984547,0.00389714966,-0.03018630025,-0.007091091113,0.05662144398,0.064678940125,5.0,0.0,0.0,9.073307536,-41.86505481,131.8650548,96.08345052,83.21772779,-41.86505481,0
239,239.0,-1.0310837915,1.161885318,9.743605715,9.866662775,-69.337091735,-1.0310837915,1.161885318,9.743605715,9.866662775,6.800182762,-6.040648819,315.0,314.0,382.0,302.0,20.0,20.0,20.0,20.0,0.0003722464851,-0.001693409572,-0.00095972627195,0.0022489246005,-0.02593275039,-0.0068412029036,0.055292423455,0.06192749224,3.0,0.0,0.0,9.058472254,-41.587392855,131.58739285,96.040648815,83.199817235,-41.587392855,0
240,240.0,-1.0256274909999998,1.153107982,9.745305122,9.8667459085,-67.559546885,-1.0256274909999998,1.153107982,9.745305122,9.8667459085,6.748113736500001,-6.007882261500001,-1.0,-1.0,-1.0,-1.0,19.0,19.0,19.0,19.0,-0.00100786898835,-0.0014691772035,0.0031822355825,0.0039432532215,-0.03275655281,-0.0119070356345,0.055573336305,0.066081996145,3.0,0.0,0.0,8.998627997,-41.649997435,131.64999745,96.007882255,83.25188625999999,-41.649997435,0
241,241.0,-1.0134938990000002,1.1426840705,9.7491882235,9.8681095295,-68.49879121,-1.0134938990000002,1.1426840705,9.7491882235,9.8681095295,6.685032757,-5.9349638875,308.0,314.0,375.0,303.0,20.0,20.0,20.0,20.0,-0.0005263407808499,0.00044977230535,0.0018816846125,0.0027399413135,-0.027398875225,-0.0111660529635,0.05731854674,0.06456294562,3.0,0.0,0.0,8.904037648,-41.571348904999994,131.5713489,95.93496388,83.31496723500001,-41.571348904999994,0
242,242.0,-1.0175707155,1.1412620275,9.746678736,9.865884803499998,-64.76168904,-1.0175707155,1.1412620275,9.746678736,9.865884803499998,6.6784914705,-5.9601913,309.0,314.0,374.5,302.0,20.0,20.0,20.0,20.0,-6.696670399999991e-06,-0.0009920092278,0.0005498367325,0.001217470473,-0.03077765081,-0.011383593753,0.054558815725,0.06369631296,4.0,0.0,0.0,8.9157218295,-41.720824575,131.72082455,95.960191295,83.32150852000001,-41.720824575,0
243,243.0,-1.0059038005,1.1409039485,9.7480171295,9.8659699455,-70.13598699,-1.0059038005,1.1409039485,9.7480171295,9.8659699455,6.6755067485,-5.891535692,-1.0,-1.0,-1.0,-1.0,19.0,19.0,19.0,19.0,-9.04975687e-05,-0.0011034092122,7.441173095e-05,0.001647114268,-0.027834775115,-0.0100407111685,0.05513665248,0.06270389565,4.0,0.0,0.0,8.8685730815,-41.40179685,131.40179684999998,95.89153569,83.324493245,-41.40179685,0
244,244.0,-1.01209386935,1.1420955885,9.74825487,9.866984474,-61.837932464999994,-1.01209386935,1.1420955885,9.74825487,9.866984474,6.682257592,-5.9273967885,-1.0,-1.0,-1.0,-1.0,20.0,20.0,20.0,20.0,0.0007035145035,0.001497172625,-0.0023506261914999,0.0063073645085,-0.030073978535,-0.0087632514785,0.05577936467,0.064433614655,6.0,0.0,0.0,8.897091803,-41.544501275,131.5445013,95.92739678,83.317742405,-41.544501275,0
245,245.0,-1.019852735,1.144496478,9.747471206,9.867277747,-56.36210142,-1.019852735,1.144496478,9.747471206,9.867277747,6.696704573,-5.972977559,-1.0,-1.0,-1.0,-1.0,19.0,19.0,19.0,19.0,-4.518128175e-05,-7.360986225e-05,0.0024722555475,0.003949644613,-0.02622456873,-0.009720677147,0.05649136063,0.063043368195,4.0,0.0,0.0,8.9375701435,-41.7040515,131.7040515,95.972977555,83.303295425,-41.7040515,0
246,246.0,-1.014255551,1.144597738,9.747885051,9.8671216995,-62.73452408,-1.014255551,1.144597738,9.747885051,9.8671216995,6.6970101845,-5.9401789625,309.0,316.0,375.0,306.0,20.0,20.0,20.0,20.0,0.00021230528025,-0.00111441551635,-0.0021635428797,0.002704805713,-0.02688231886,-0.01015994206,0.056299703805,0.06322141256,5.0,0.0,0.0,8.9163034205,-41.54481799,131.54481795,95.94017896,83.30298981,-41.54481799,0
247,247.0,-1.0050364865,1.143818476,9.749826602,9.868005944,-61.532960245,-1.0050364865,1.143818476,9.749826602,9.868005944,6.6911704489999995,-5.885403819,304.0,316.0,371.0,304.0,20.0,20.0,20.0,20.0,0.00039041899005,-0.00057939709957,-0.000489479298323,0.001257053376,-0.021861058965,-0.0102916097485,0.057575663715,0.0624761754299999,5.0,0.0,0.0,8.876212419,-41.30475047,131.30475045,95.88540381,83.30882954500001,-41.30475047,0
248,248.0,-1.019130707,1.1387085140000002,9.749056145,9.868099421,-65.969779195,-1.019130707,1.1387085140000002,9.749056145,9.868099421,6.662070607,-5.967815376,301.0,315.0,368.0,304.0,19.0,19.0,19.0,19.0,0.0004590906125,0.00101935900475,0.0013743734110999,0.0019754229935,-0.02848338683,-0.01666662045,0.057776767805,0.0665466487299999,3.0,0.0,0.0,8.90862835,-41.82813756,131.82813755,95.967815375,83.33792939,-41.82813756,0
249,249.0,-1.0150876435,1.1475240055,9.746264891,9.8659478515,-66.75630882499999,-1.0150876435,1.1475240055,9.746264891,9.8659478515,6.715083519,-5.9460022519999995,306.0,314.0,372.0,304.0,19.0,19.0,19.0,19.0,-0.000107037716115,-0.00085079346865,-0.0001040750237999,0.0009102384501,-0.0230403621099999,-0.0107327477705,0.055703190355,0.06135681966,5.0,0.0,0.0,8.933494889999999,-41.495585555000005,131.49558555,95.946002245,83.28491647999999,-41.495585555000005,0
250,250.0,-1.005445929,1.1414586775,9.7492527955,9.8672081775,-60.18213224,-1.005445929,1.1414586775,9.7492527955,9.8672081775,6.6778822515,-5.888131162,-1.0,-1.0,-1.0,-1.0,20.0,20.0,20.0,20.0,-0.0002432414582,-0.0007626560479735,0.00017077621875,0.0011518446646999,-0.023701796135,-0.013726792335,0.057008145575,0.06330796724,2.0,0.0,0.0,8.868129683,-41.37478017,131.37478015,95.888131155,83.322117745,-41.37478017,0
251,251.0,-1.0018607375,1.137646018,9.750155329999998,9.8672948245,-75.16163552,-1.0018607375,1.137646018,9.750155329999998,9.8672948245,6.64050687,-5.84954712,-1.0,-1.0,-1.0,-1.0,21.0,21.0,21.0,21.0,-5.3115296399999985e-05,0.00027341346195,0.0027714031975,0.0028022733635,-0.0202436968999999,-0.01422612807,0.05744725427,0.062692906725,0.0,0.0,0.0,8.815196154,-41.34779391,131.3477939,95.84954711,83.35949313,-41.34779391,0
252,252.0,-1.0028674676,1.1402582325,9.7502419145,9.867785957,-74.17416314,-1.0028674676,1.1402582325,9.7502419145,9.867785957,6.6702446885,-5.8725455355000005,305.0,314.0,372.0,303.0,18.0,18.0,18.0,18.0,0.0019658119235,0.0009495999034,-0.0002062454016499,0.0023493686825,-0.016985366075,-0.01912073627,0.0588998631499999,0.064376645755,3.0,0.0,0.0,8.8523722025,-41.332297665,131.33229765,95.87254553,83.32975530499999,-41.332297665,0
253,253.0,-1.009920448,1.1540398675,9.7455369925,9.8654575825,-65.26016146,-1.009920448,1.1540398675,9.7455369925,9.8654575825,6.7533607159999995,-5.916387767,-1.0,-1.0,-1.0,-1.0,20.0,20.0,20.0,20.0,-0.00015048232325,-0.0008484839174,-0.0009070226931,0.0013996118055,-0.02384937097,-0.0122015884099999,0.055387922245,0.061606657535,0.0,0.0,0.0,8.9426361195,-41.18964998,131.18965,95.91638776,83.24663928000001,-41.18964998,0
254,254.0,-1.0006192017,1.1461401185,9.749310029,9.867323088,-62.89588308,-1.0006192017,1.1461401185,9.749310029,9.867323088,6.704983503499999,-5.860035114,-1.0,-1.0,-1.0,-1.0,18.0,18.0,18.0,18.0,-0.0004427798354,0.0008120383899999,0.0021404142709,0.0030673011725,-0.014133778607,-0.0146053457999999,0.05846327678,0.063049675775,3.0,0.0,0.0,8.870133194000001,-41.120352725,131.1203527,95.86003511,83.295016495,-41.120352725,0
255,255.0,-1.020614386,1.130534336,9.747384621,9.865662914,-65.924960195,-1.020614386,1.130534336,9.747384621,9.865662914,6.6158061555,-5.9774619775,-1.0,-1.0,-1.0,-1.0,19.0,19.0,19.0,19.0,-0.0012444021025,0.0015144326775,0.004209219065,0.005574912953,-0.019253562655,-0.015131931285,0.056125938315,0.0615342806399999,4.0,0.0,0.0,8.880953153499998,-42.075151215,132.0751512,95.97746197,83.38419384,-42.075151215,0
256,256.0,-1.022758457,1.135899649,9.747183569,9.866300745,-63.22332297,-1.022758457,1.135899649,9.747183569,9.866300745,6.647049635,-5.990047373,-1.0,-1.0,-1.0,-1.0,18.0,18.0,18.0,18.0,0.000219447068,-0.002004401941,-0.0005719227369,0.002095919792,-0.01761367376,-0.01632700972,0.05710288767,0.06194798245,5.0,0.0,0.0,8.912213104,-41.99971638,131.9997164,95.99004737,83.35295036,-41.99971638,0
257,257.0,-0.9986717809,1.132389302,9.750398941,9.8666083835,-58.615048235,-0.9986717809,1.132389302,9.750398941,9.8666083835,6.624525611499999,-5.8480530955,-1.0,-1.0,-1.0,-1.0,21.0,21.0,21.0,21.0,-0.0005296929511,-0.001006251922585,0.001919459846,0.0024213895695,-0.012610111725,-0.01614031945,0.05787558002,0.0614290773099999,5.0,0.0,0.0,8.8023700175,-41.409225225,131.40922519999998,95.84805309,83.375474385,-41.409225225,0
258,258.0,-1.00229072545,1.133222863,9.749942537,9.8666207055,-65.45671609,-1.00229072545,1.133222863,9.749942537,9.8666207055,6.629666715,-5.8693710585000005,-1.0,-1.0,-1.0,-1.0,20.0,20.0,20.0,20.0,0.0006326417753,0.0009118282356499,0.0002685563419999,0.0029829158665,-0.01709955231,-0.012820361405,0.05713166514,0.061050384595,2.0,0.0,0.0,8.820112188500001,-41.491019315,131.4910193,95.869371055,83.37033328,-41.491019315,0
259,259.0,-1.0053916305,1.1291108255000002,9.751443827,9.867946608,-69.238115775,-1.0053916305,1.1291108255000002,9.751443827,9.867946608,6.604816611,-5.886496371,-1.0,-1.0,-1.0,-1.0,18.0,18.0,18.0,18.0,0.0005440505122,0.000876503798,-0.00100026945285,0.0022728225285,-0.008277959808,-0.01717334331,0.059588074705,0.06260091187,5.0,0.0,0.0,8.8129353115,-41.68271863,131.68271865,95.88649637,83.395183385,-41.68271863,0
260,260.0,-1.010056929,1.1306399985,9.748394286,9.865584687,-69.10192016,-1.010056929,1.1306399985,9.748394286,9.865584687,6.6157287455,-5.915458969,-1.0,-1.0,-1.0,-1.0,20.0,20.0,20.0,20.0,-0.0002964097508949,-0.00144656563585,0.0004979170035,0.0024696704974999,-0.01987239298,-0.01745190581,0.0561205669,0.0621272602349999,5.0,0.0,0.0,8.840006834499999,-41.776107495000005,131.7761075,95.915458965,83.38427125,-41.776107495000005,0
261,261.0,-0.99283245315,1.1288569415,9.7517241265,9.866922979,-61.04637785,-0.99283245315,1.1288569415,9.7517241265,9.866922979,6.6031537369999995,-5.8133075835,-1.0,-1.0,-1.0,-1.0,18.0,18.0,18.0,18.0,0.0001412540646999,2.035630329999999e-05,0.00054380185355,0.001151551114,-0.0061737346359999,-0.016956289075,0.059194390845,0.06194002901,6.0,0.0,0.0,8.7638302735,-41.331575525,131.3315755,95.81330758,83.39684625999999,-41.331575525,0
262,262.0,-1.0095418235,1.127225041,9.7502492525,9.866975469,-67.644801245,-1.0095418235,1.127225041,9.7502492525,9.866975469,6.594679492,-5.911349289,-1.0,-1.0,-1.0,-1.0,21.0,21.0,21.0,21.0,0.00048208622465,0.0014373035289999,7.032847715e-05,0.0019503946004999,-0.011145290334,-0.0196160412999999,0.058940271995,0.063140871125,6.0,0.0,0.0,8.8218229325,-41.847288195,131.8472882,95.91134928,83.40532050499999,-41.847288195,0
263,263.0,-1.0068488938,1.130010425,9.7497561605,9.8665338165,-70.044217145,-1.0068488938,1.130010425,9.7497561605,9.8665338165,6.6111638885,-5.8959893595,-1.0,-1.0,-1.0,-1.0,18.0,18.0,18.0,18.0,0.00010579352395,-0.0012658636505,-0.00028322946605,0.0013518037655,-0.011230690493,-0.01842384777,0.058233848095,0.062507300485,2.0,0.0,0.0,8.8239154495,-41.700389265,131.70038929999998,95.895989355,83.388836105,-41.700389265,0
264,264.0,-1.00197960805,1.1268816375,9.7514012685,9.8673037255,-71.20210802,-1.00197960805,1.1268816375,9.7514012685,9.8673037255,6.5919169265,-5.8666964235000005,-1.0,-1.0,-1.0,-1.0,20.0,20.0,20.0,20.0,-0.00024334384865,0.0001123763575,0.0031549434164999,0.004645096364,-0.0067620512344999,-0.019338358745,0.059672463785,0.063305180495,0.0,0.0,0.0,8.7904252515,-41.641930575,131.64193054999998,95.86669642,83.40808307,-41.641930575,0
265,265.0,-1.0036393916000002,1.1287248635,9.751304411,9.867600545,-72.95913124500001,-1.0036393916000002,1.1287248635,9.751304411,9.867600545,6.6026728355,-5.876408832,312.3333333333333,304.3333333333333,378.6666666666667,295.3333333333333,20.0,20.0,20.0,20.0,0.00079828203795,0.00182613624965,-0.001623135254,0.002756886787,-0.007974701423,-0.01653195535,0.059448119875,0.06298583845,0.0,0.0,0.0,8.8049605575,-41.639302025000006,131.639302,95.876408825,83.39732716,-41.639302025000006,0
266,266.0,-1.013716965,1.136850613,9.748335585,9.866622845,-72.94001158500001,-1.013716965,1.136850613,9.748335585,9.866622845,6.6517799315,-5.9367766930000005,-1.0,-1.0,-1.0,-1.0,20.0,20.0,20.0,20.0,0.0022437889855,-0.0008773168505,0.0004990162742999,0.004386832883,-0.0106389443905,-0.01845807548,0.05850275695,0.062617420105,0.0,0.0,0.0,8.880886585999999,-41.722149015,131.722149,95.936776685,83.34822006499999,-41.722149015,0
267,267.0,-0.9926548812,1.146195885,9.749254263,9.866469571,-74.07381614,-0.9926548812,1.146195885,9.749254263,9.866469571,6.7053356824999995,-5.8137364465,281.0,300.0,349.0,297.0,21.0,21.0,21.0,21.0,0.000650080792855,-0.000452751039245,-0.002595910426,0.002726396494,0.004747048413,-0.02008302674,0.05981226956,0.0638992503599999,0.0,0.0,0.0,8.840503474,-40.895359154999994,130.89535915,95.81373644,83.294664315,-40.895359154999994,0
268,268.0,-1.009942461,1.134041748,9.748106649,9.865679719,-68.8514199,-1.009942461,1.134041748,9.748106649,9.865679719,6.6356533625,-5.9149697625,-1.0,-1.0,-1.0,-1.0,20.0,20.0,20.0,20.0,-0.001015343173655,0.0001038825287999,-0.0022340517252,0.0031494262308,-0.0098766136485,-0.01897222989,0.057678402735,0.061608712265,0.0,0.0,0.0,8.854397841499999,-41.68709937,131.68709934999998,95.914969755,83.36434663,-41.68709937,0
269,269.0,-1.006165022,1.1711440055,9.76464872,9.8860198755,-66.63683769,-1.006165022,1.1711440055,9.76464872,9.8860198755,6.8388596845,-5.883066181,-1.0,-1.0,-1.0,-1.0,21.0,21.0,21.0,21.0,0.025714862951,0.005384945295,0.0226706246655,0.0363016819004999,0.00043839212715,-0.026990771095,0.082113785105,0.0867165387899999,0.0,0.0,0.0,8.985753543,-40.680594995,130.68059499999998,95.883066175,83.16114031000001,-40.680594995,0
270,270.0,-1.0376187314999998,1.2380123045,9.71163103,9.845600103,-67.91384045,-1.0376187314999998,1.2380123045,9.71163103,9.845600103,7.2667875535,-6.0994341985,-1.0,-1.0,-1.0,-1.0,16.0,16.0,16.0,16.0,-0.0254409303,-0.003214107024,-0.01268746239,0.044321250145,-0.009898511325,-0.01476767554,0.0358363235674999,0.0558670395,0.0,0.0,0.0,9.4477698845,-40.039992119999994,130.03999215,96.099434195,82.73321244499999,-40.039992119999994,0
271,271.0,-1.00046804525,1.142251147,9.7509096435,9.8684339345,-72.61344919499999,-1.00046804525,1.142251147,9.7509096435,9.8684339345,6.6813592905,-5.8582003275,-1.0,-1.0,-1.0,-1.0,19.0,19.0,19.0,19.0,0.0044372079357999,-0.00040666580165,-0.0264804475625,0.02700965724,0.01503143943,-0.015732226075,0.06235010447,0.066221836825,0.0,0.0,0.0,8.8512106885,-41.214320830000005,131.2143208,95.85820032,83.318640705,-41.214320830000005,0
272,272.0,-1.076361694,1.145875962,9.738331389,9.864519302,-71.04957716499999,-1.076361694,1.145875962,9.738331389,9.864519302,6.710977928,-6.307300021,-1.0,-1.0,-1.0,-1.0,19.0,19.0,19.0,19.0,-0.0041337170675,-0.0025573038728,0.014934864615,0.06567988723,-0.043268908565,-0.02853383411,0.05387572909,0.07877792822,1.0,0.0,0.0,9.171887855,-43.186194515,133.1861945,96.307300015,83.28902206500001,-43.186194515,0
273,273.0,-0.93569245265,0.9970457501,9.770646542,9.866272559,-58.014804315000006,-0.93569245265,0.9970457501,9.770646542,9.866272559,5.826716833,-5.470384654,-1.0,-1.0,-1.0,-1.0,20.0,20.0,20.0,20.0,-0.041911515425,0.009058275134,0.22899722675,0.2332651064499999,-0.011602416485,-0.0262728268875,0.0583659837,0.081011255955,0.0,0.0,0.0,7.968279949499999,-43.102915104999994,133.10291510000002,95.47038465,84.173283165,-43.102915104999994,0
274,274.0,-0.83658824695,0.9660616527,9.7880280435,9.871740574,-69.916306835,-0.83658824695,0.9660616527,9.7880280435,9.871740574,5.636820707,-4.8854781764999995,-1.0,-1.0,-1.0,-1.0,20.0,20.0,20.0,20.0,0.02687492358,-0.0026144786605,-0.149907780375,0.152403599235,0.05520568977,-0.012547547235,0.067824783695,0.115608484735,1.0,0.0,0.0,7.452298432,-40.673607774999994,130.67360775,94.88547817,84.36317929,-40.673607774999994,1
