Time (s),Gyroscope x (rad/s),Gyroscope y (rad/s),Gyroscope z (rad/s),Absolute (rad/s)
0.0,0.0001024125108,-7.547232627e-05,0.0001382329591,0.0001878636351
1.0,0.0023450893236,0.0064613236105,0.021559380719,0.0237602163485
2.0,-0.0089712446755,-0.00104394111,0.00730241379,0.029945327955
3.0,-0.00102399365865,0.003812252963,-0.0036448203234500003,0.0063042264665000005
4.0,0.0010639142345000002,-0.0047213735625,-0.004676117548,0.00703665342
5.0,0.0003718301818,-0.0013011374728,-0.0010261267845,0.0017128292869500001
6.0,-3.8470006939999996e-05,-0.0005015309206,-0.0010125271989,0.0011401297789
7.0,-0.0001850881244,-0.00015470093950000006,-0.001282812313,0.0034950768114999997
8.0,4.836150424999997e-06,7.380650609999995e-05,-0.0003037681169,0.0010772586784999999
9.0,0.00017980985368499998,-9.349882189999998e-05,1.2637264400000017e-05,0.0008264335715499999
10.0,-0.00027067919385,9.632239335e-05,-6.182556604999999e-05,0.000825847522
11.0,-8.742654849999999e-05,-0.00020337410675000004,0.0003382226968,0.0008595703308999999
12.0,0.000296353533685,0.00026534522615000004,-0.00031357078686499996,0.00076253551985
13.0,0.00021625731335,-0.00014965924065,-0.0001991574616,0.0006197847001999999
14.0,-0.0001454696187,-2.880708889999999e-05,-0.000325320913975,0.0009940006735
15.0,0.00026942396719999997,-0.0008495340187499999,0.0006344729087,0.0020223272545
16.0,0.0005382050157,-0.0018678767405,-0.00243658564,0.0033132103474999997
17.0,-0.0003142597829,0.0005664557092100001,-0.0001426305024,0.0014632545415
18.0,-0.00024756557064999996,-0.00098207950895,0.00031537626521299997,0.0011240081308
19.0,-0.0003974849961,-0.00045142441465,0.00053985590808,0.00157826645575
20.0,8.632567274999999e-05,-0.000378486443535,0.000288261929245,0.00084578620085
21.0,0.00087456069135,0.00083037192485,-0.0010750762111,0.002639292708
22.0,-0.0003838664624,-0.00011717614819999999,-2.588759699999999e-05,0.0011081941364
23.0,-0.00019775510435,0.00110435021435,0.00010745434605000001,0.0015638650615000002
24.0,-0.008383723217,-0.0045819744815,0.029775838645,0.033191491000000004
25.0,-0.01639565565,-0.008541364105000001,0.0687589386895,0.084494345275
26.0,0.01578394374,0.004673750432,-0.05630037602,0.05865755844
27.0,0.017497645615,0.012890988601500002,-0.05789709815,0.075333413875
28.0,0.009550144940000001,0.005679510129999999,-0.044781175464999996,0.06567273464
29.0,0.039172214165,0.019832230763,-0.004570688523,0.044191367515
30.0,-0.036266031530000006,-0.01456128941,0.02066629054,0.07074279763
31.0,0.027394913775,0.01597705212,0.0060399482349999985,0.05279289535
32.0,0.0079317057835,-0.0005094421703500001,0.00134757839785,0.008426842736
33.0,0.005294519906,0.005371764184,-0.005404684327,0.012550019881000001
34.0,-0.03485986619,-0.017408006195,-0.020633468217,0.06289033454
35.0,-0.0100212825595,-0.008737465538,0.008014759364,0.01798742356
36.0,-0.00103853508015,-0.002342594097,0.0012898098805999999,0.0029910834184999997
37.0,0.00011952334385000001,0.00046510666065,0.0013126639774499998,0.00207289027435
38.0,0.00027568929359999997,0.0026743639405000003,0.00104662162895,0.0043649659145
39.0,-9.335403319000001e-05,-0.00137466957615,-0.00066295079,0.002365849974
40.0,-7.199052510000001e-05,-0.00032054572755000005,-0.00037377881220000003,0.00114148146665
41.0,0.0001367600338,0.001699411736,0.0009191798174500001,0.0020945263784999998
42.0,0.00063523785765,0.0003696544767,-0.0005945799660000001,0.0014332807113499998
43.0,0.00022241460415,-0.001433052709,-0.0009465903185,0.0018681080604999998
44.0,-0.000100138900775,-0.000517725795,-0.00022603790546999998,0.00062067354775
45.0,-0.0005417094410499999,0.0015060296975,0.0007106784055999999,0.001829651701
46.0,-2.7628022000000007e-05,5.0120618350000016e-05,0.00055715827722,0.00100668107785
47.0,0.000104991815015,0.00079162522915,0.00010015382935,0.0012158258164
48.0,0.00021378925373895,-0.0009484470082499999,-0.00067882890145,0.0014459824655
49.0,0.00010108026245000002,0.0005370563495000001,0.00014525078985,0.00178469778
50.0,0.00012917146225,0.000937380489,0.001344368193,0.001645467506
51.0,-0.0002241374413,0.0007777384861,0.0003552540598,0.0008839231824
52.0,0.00067561005675,0.00129278008165,-0.00117022700715,0.0024778621838999998
53.0,-0.0002875959309,-0.0019973661265,0.0007583060206,0.0027519632620000003
54.0,-0.00038029482889999995,0.0005438304914999999,0.0007126766882499999,0.001844379922
55.0,0.00014108711374999995,0.00014730260645,0.00016968295332,0.0014087749124999998
56.0,0.00016026249080000003,-5.1870362344999996e-05,0.00023647590864999998,0.0006809265268
57.0,0.0005400319716,0.00036613258656,-5.396523999999991e-05,0.0015039305675
58.0,0.00036619897409999997,-0.0003923077602,0.00028668256139999996,0.0007751154596
59.0,0.00026980042455,0.0019117505894999999,-0.00091027843715,0.0025253713299999998
60.0,0.00040386102675000004,0.0010819153338,-0.00062519429235,0.00216169423265
61.0,0.0016832844095,0.00086597228595,-0.00029703058685,0.0026100904245
62.0,0.00048338377155,-0.00077377462325,0.0004728080126,0.0011738475214
63.0,-0.00035473336829999996,0.0006239486723499999,0.001351381465,0.0015314909245
64.0,0.0003969364083,0.00050961237995,-0.0005257326411,0.00146677742605
65.0,0.0016363293125,-0.00017077551349999997,0.0005352562292500001,0.0025126091794999998
66.0,-0.0014572957504499998,0.0015160710955000002,-0.001637073195,0.005050811913
67.0,0.0002846051775,1.9143799000000063e-05,-0.0006139268684999999,0.004270412331
68.0,0.00048765799430000004,0.00021821129435,-0.0004943435345000001,0.0024566072475
69.0,0.0006528366515000001,0.00033769021870000003,-0.0125112798265,0.0159358255165
70.0,0.0005783902175500001,0.00042173117255000006,0.008509392337,0.015619216828999999
71.0,-0.00144104219665,0.0013149080653,0.00582563132285,0.007028698113
72.0,0.001683457926,0.00027775072821499997,-0.00123292293545,0.0021859981805
73.0,0.0007776607322000001,-0.0003566561441,-0.00146901668229,0.002316226616
74.0,-0.00021580582959,0.00018554544259999998,0.002155130339,0.0021892204540000003
75.0,-0.00016039755995,-0.00120515461945,0.002493636806,0.0042244814725
76.0,0.000182886185673,-0.00073122869435,-0.00128240012055,0.0016803281265
77.0,0.001000351743,-0.001267980471,-0.002914184033,0.003331808318
78.0,-4.53273647e-05,0.0004468537904,0.0014940339241499999,0.0024391320790000002
79.0,0.00028057180245,3.381439155000001e-05,-0.00092252754095,0.001386007553
80.0,0.00029625042169999997,-0.0012292868283,8.604491549999978e-06,0.0014441906326
81.0,-0.0004035432539,0.00038173361385,0.000713076015575,0.0010871656286
82.0,9.001161465000001e-05,0.00155176886015,0.0004532156583499999,0.0017683945998500001
83.0,0.000313697764,-0.0006679776524000001,-0.00119097528775,0.0014436144039
84.0,5.1143565499999985e-05,-0.00011477409065000001,-0.00112833908065,0.0014116980645
85.0,-7.220956169999999e-05,0.0006802781649499999,0.0002034866644,0.0009299492604
86.0,0.00017536370604999998,-0.00078345048265,-0.00031078132509999997,0.0009674105029
87.0,0.0055023821545,0.020264549155,0.04189718763,0.048691994825
88.0,-0.005664517340500001,-0.002698955026,0.016532084705,0.028820536265
89.0,0.00033997717199999973,-0.00904946367,-0.023156846292999998,0.025491461165
90.0,0.0013855434315,-0.0023881204555000002,-0.0080035316775,0.0086232373925
91.0,-0.002105195034,-0.0043381629965,-0.0029447840245,0.005893798654
92.0,-0.0003862887523,0.00046138989945000003,-0.00167120832,0.003508631751
93.0,0.0005537525923700001,0.0007097900970500001,0.00034816975833,0.0012347877545
94.0,0.0004813299519,-0.0007479230270999999,-0.00193990049585,0.0022068357520000003
95.0,0.000226304056,-0.0007675592914000001,0.0004031093579999999,0.0022929677035000004
96.0,0.00020905802080000004,0.00165530036685,-0.0033224068365000003,0.004242704005
97.0,0.00089982709855,-0.00140681337025,-2.2459158895e-05,0.0017437010965000001
98.0,0.0020186709005,-0.00066966188405,-0.0115812959265,0.021492601456
99.0,-0.00061939201365,0.006328013221499999,0.008326118483,0.01061421887
100.0,-0.0010024150741,-0.0032134924127,0.002642761991,0.007335593612000001
101.0,2.1795024999999918e-06,-0.0014011678606,-0.0014689573125000002,0.0045173924135
102.0,-1.0226602099999992e-05,0.00044783212785,-0.00020103054950000002,0.002294426534
103.0,0.0009885819711,0.001056482703,-4.192270046e-05,0.00144748317
104.0,0.00070088440965,-0.00094851181835,-0.000733618718,0.0018446868595000001
105.0,-0.00044599072735,-0.0002807519837,-0.00017045024700000004,0.0015801189315000001
106.0,-0.00033135404215000003,0.0003410393175,0.00022584418589999998,0.00127645008685
107.0,0.000481070889005,0.0006137681859999999,-0.0018761633102499999,0.004033539065
108.0,0.0006871493759449999,-0.003319378124,7.340156555000002e-05,0.0034755537305
109.0,0.0005829378725,0.0038357258740000003,-0.003334460063,0.0052345194834999996
110.0,0.0027531507725,0.001637408103615,-0.0099771571115,0.0105664164215
111.0,-7.783866024999999e-05,-0.0036289405489999997,-0.0014702960204,0.0039711563035
112.0,-0.000131050234324,-0.00041999259735000003,-0.0017122522354499998,0.002087471776
113.0,-0.00017513346849999992,0.00025388604375,0.00043469763308000005,0.002212421978
114.0,-0.00013370346499999998,0.00020636988054999997,0.001437889976,0.0037564658924999998
115.0,4.324392309999997e-05,-0.0028723497869999996,0.0027424591235,0.006385919238
116.0,0.00049832594059,0.0024552120510000002,-0.00122718431275,0.0028800300785000003
117.0,-1.2650179600000002e-05,-0.00177298537935,0.0012867202861000001,0.003278237868
118.0,-0.0001535811713,0.0012161161502,-0.00023346439945000005,0.0015944633755
119.0,-0.00011380694751,0.00018248419784999998,0.00017553020274999997,0.0009763243265
120.0,0.00035393576585,-0.00041173014225,-0.00152702030835,0.002210684307
121.0,-9.955783085e-05,0.00018022151750000004,0.0024795143055,0.0032774795765
122.0,-0.0004148140422,-0.0005200106317,-0.00030449810939999996,0.00075987934805
123.0,-9.19836879e-05,0.000118211854495,-0.00039903132025,0.00054586857005
124.0,0.00030131324185,0.00048422816624999995,0.00082835688838,0.0015776183000000001
125.0,0.0005523189971,0.002680257446585,-0.0021194383371000002,0.00349720100195
126.0,-0.0012259914165,0.002251312527,0.003284892506,0.004195656224
127.0,-0.001686722339,-0.0045589282025,0.010279146275,0.011451777888
128.0,-0.01765387665,-0.00325130089,0.05224289667,0.05524084151
129.0,-0.0014845265586,-0.00035439712,0.0037395722855,0.0042163914960000005
130.0,0.013878053974999999,0.0047934353834999995,0.008806152795000001,0.047030281255
131.0,0.025387110145000003,0.0108057805925,0.0012923153899999998,0.06553009679999999
132.0,0.024872904214999998,0.013490650881999999,0.004303280602,0.029533358325
133.0,-0.01517768965,0.0011226309295,-0.00859253767,0.01881078396
134.0,0.006954340111999999,-0.02083628831,6.596000000011482e-08,0.051105670165
135.0,0.041120586865,-0.084518099441,0.024093833154999997,0.10430911606
136.0,0.4036419828,-0.027153047699999988,0.05078190993000001,0.7768386994
137.0,-0.3314239718,0.08535418909999998,-0.101484998355,0.68070345315
138.0,-0.009629196165,-0.085709426585,-0.023422563604999995,0.113188841215
139.0,0.006229052060000004,-0.20577025475,-0.034295142,0.38406243655000005
140.0,-0.12226574505500001,0.36120950615,0.06434134547999999,0.38963197305
141.0,-0.0061043831535500005,0.01052946292,0.037905430625,0.044472225415
142.0,-0.0007891211973999999,-0.0019687670545499997,-0.00148517671315,0.0028108342679999997
143.0,-0.0006796032551,0.00080304179,-2.6542093050000008e-05,0.0010629921968499999
144.0,0.00049578701375,0.00097494646685,0.00046701932895,0.0018945474007
145.0,-0.00020404174175,-0.000302009923633,0.000210297337325,0.0006363165066999999
146.0,-0.0003463932993,3.4151364839e-05,-0.0003616540652,0.00056534855465
147.0,-3.29223717e-05,0.0003912695545500001,0.00046133014202,0.0015619787515000001
148.0,-0.00025741844075,-0.0013252735644000001,-0.0010321554067499999,0.001837169915
149.0,-3.2235021399999996e-05,-0.0010240668904499999,-0.00155790146525,0.001883825849
150.0,-0.00055174207245,0.00089038788755,0.00032896191490000006,0.001368852407
151.0,-0.000813595462,0.00032637492100000005,0.0012633471738,0.00292393422
152.0,0.00029921656530000005,0.00047323686160000004,0.00176970476,0.002177485043
153.0,-0.0005916404703499999,0.0004685348169,0.00043464914039,0.00136131532145
154.0,-0.0006814337902,0.00197962583,0.001731794894,0.002717054285
155.0,0.00038028907195,-0.0015914423975000001,0.0001608715872,0.0020160911159999998
156.0,-0.00057502862925,0.00022903957300000001,-0.0005241437432500001,0.002142384881
157.0,0.000177578678765,0.00112745187165,0.0006193257914,0.0013948475815
158.0,-0.00019921991044499998,-0.00026408101174,-0.0003399987153,0.00073490105555
159.0,8.272388994999999e-05,-0.0005987279731,-9.758007599999986e-06,0.000779542162
160.0,1.0178449529e-05,-0.00107639929725,-0.00036576570365,0.00113695585075
161.0,1.5732067599999997e-05,0.0009119775506999999,0.0011245146320000001,0.0015058553034999998
162.0,0.0007003158258,-0.0004730206042,-2.237294080000002e-05,0.0012588769592
163.0,-9.6549163555e-05,-0.0011346431967,-0.00015186746695,0.0012627030806
164.0,-0.0005801472923650001,-0.00038671445025,0.00012975890065,0.0013557023665
165.0,0.000626137398,0.0008007312711500001,0.0008557785583999999,0.0019563639595000003
166.0,0.0001460433408,-0.001417549447,-0.00068852535045,0.0015873528035
167.0,-9.94146579999999e-05,-0.00280401955,0.0008071564508,0.004151581180999999
168.0,-0.0008483048477,0.001221932053,0.0013459712452000001,0.002348372629
169.0,9.152180445e-05,-7.4141532145e-05,7.974035500000001e-05,0.0015848110525
170.0,-0.000176990108,-0.0010116889369,-0.0008939818851,0.0014329949354999999
171.0,4.1196296245000004e-05,-0.0002348291956,0.0007606554506999999,0.0012813259315
172.0,0.00013717951699999996,0.0009665386431,0.0005354574542049999,0.001399355944
173.0,0.000527215361275,-0.00037136988365,-0.00043052745359999995,0.0009290518682
174.0,-0.00010278998355,-0.00041724094555,-0.000355390475725,0.0008250254684000001
175.0,-6.710852304500001e-05,0.00078107760985,-0.00014643623299999994,0.0015728719275
176.0,0.00046410044085,-0.00037986843835,0.00096010136875,0.00122152743485
177.0,-4.9906239550000014e-05,-0.0009569205428,-0.0007128927027,0.001449694121
178.0,6.0807413649999984e-05,-0.00016330625390000004,0.0005420304072349999,0.00101723121645
179.0,0.00018099937635,0.000435015309,0.00027431837995,0.00095995665785
180.0,-0.0006473672613,-0.0001415224933,-6.421437651e-05,0.0006657600718
181.0,0.0001575231561,-0.000771409923,-0.00101082659465,0.00164429631
182.0,9.951517947e-05,0.00016696827245000004,0.0007818933057600001,0.00112901341915
183.0,0.00013487960674999998,4.0424949999999976e-05,0.0005364899576,0.0011310929757
184.0,0.000118457566135,-0.0010359470046999999,-0.00066466471298,0.001500840874
185.0,-6.777685885000001e-05,5.63876021e-05,8.330600549999998e-06,0.00037701943100000004
186.0,0.00034571039335000003,0.0004828937532,0.0005567207836500001,0.00086989547415
187.0,0.0006121956612,9.8862433e-05,0.00010497340079999997,0.00119947482565
188.0,-1.5417301075e-05,-0.0006976752284,-0.00039117755005,0.0008137546466
189.0,-0.00016168959885,-0.00013385032415,0.00028438730319,0.000730230922
190.0,-0.00047522585145000004,0.00046194407075,0.00111814509575,0.0013275974744999999
191.0,0.00031284674765,-1.022846703e-05,-0.0002934786893,0.00103081730375
192.0,0.010974043526,0.00028638886934999997,0.0134922554545,0.018627984116499997
193.0,-0.01059032289195,0.00106885418405,-0.01078375988105,0.015364388803
194.0,0.0005560247707,0.00013356478700000002,0.00012183398029999999,0.00076063534415
195.0,0.0001873195893,-0.00022551823435000004,0.00015609924835,0.0006326120243499999
196.0,0.0009382605240000003,-0.00086671224566,-0.0013954037199999996,0.017228846475
197.0,-0.0011012769285,-0.00031604624699999994,0.0035657888942500003,0.005253272359500001
198.0,-0.0007080317969499999,0.00029263026585,0.00011363021769999999,0.0016390787515000002
199.0,-2.8116434500000012e-05,-0.0001507722259,0.006043049032,0.006308954973
200.0,-0.0004025751807,-0.0004705886124999999,-0.0010698921043,0.0024477924450000002
201.0,0.00141608666905,0.0015768362085000001,-0.0025991412225,0.0036028730990000004
202.0,0.0037135363915,-0.0006408365314999999,-0.003661293233,0.005753642708
203.0,0.00077591974995,0.0079705637525,-0.003021818271,0.0090119919295
204.0,-0.002921479494,-0.00470659472645,0.006767503443000001,0.01433385081
205.0,0.003212340432,0.0009216439235,-0.001506473887,0.003665790794
206.0,-0.00026029052998,-0.003128954818,-0.00245031008175,0.003990583392
207.0,-2.637736305000001e-05,0.0003762859486,-0.0002665267162,0.0010468541692
208.0,9.821837670000001e-05,0.0004325183668,0.00036230145534,0.00084034106835
209.0,0.00013137276639999998,1.4842890749999996e-05,2.8023955100000024e-05,0.0007874300210500001
210.0,-0.00023191919845,-0.000189369508995,-0.00019821242710000003,0.00068010885855
211.0,-5.4477748250000006e-05,0.00058506174905,0.00085081268265,0.0010577182074999998
212.0,0.00030580454725,-0.00029694508105,-0.000138468389855,0.00074834316225
213.0,-0.00062248574165,-0.0006726659736,0.00077232592925,0.00159575844745
214.0,0.000312939512195,-0.0003803683416,0.00014560788815,0.00095319531365
215.0,0.00033359138488,-0.00061604207695,-0.0002763039186,0.00108479941105
216.0,-8.400294500000003e-06,0.001476820993,-0.002809910919,0.003534083201
217.0,0.00012505053150000008,0.0009929036207499999,0.0018656058145999999,0.0027179321844999996
218.0,0.00061347336714,-0.0002145296974,-0.0004031806545,0.0010000460599
219.0,0.011336207458,0.00214365113955,0.004712821352,0.0162827764895
220.0,-0.0058557567135,-0.0016063646638,-0.0074346084815,0.010086491715
221.0,-0.0030639565750000004,0.0026001107045,0.0054274575225,0.0070318767505
222.0,0.0050318246941499995,0.0013404713395,-0.0017558471320499999,0.0075072085224999995
223.0,-0.0024758764705,-0.004094674567,-0.0021810259525,0.0061227603465
224.0,-0.002615933569,-0.0006122510554,0.0028501413510000004,0.003922019318
225.0,-0.00044155962475,-0.0003808677943,0.00011918147314999997,0.0011669408712
226.0,0.00040171872455,-0.00130422203345,-0.00031876580234999996,0.001703974098
227.0,-0.001620742246,-7.82729453e-05,0.003749487531,0.0041743861345
228.0,-0.000220047513155,0.0008309293496,0.0009872805573195,0.0014904677654
229.0,0.0008506952606000001,-0.0014496494758,-0.0008922377670999999,0.0023028324095
230.0,0.00095595034785,0.0007316883310000001,-0.006814810556999999,0.007225427312
231.0,0.006101126171,0.004201192879,-0.006641745759,0.009949198404
232.0,-0.00083699552626,0.00040450401040000006,0.0037119995696,0.0039596137863
233.0,-0.0005683935083,-0.0025904252265,0.0003394893660999999,0.002846711752
234.0,-0.00071678491645,-0.0014422550712,0.0012062417170850001,0.0020870439769
235.0,6.802110049999996e-05,0.00434768652675,-0.0013504107115,0.0057058337475
236.0,0.003282666718,-0.0007280671990000001,-0.0074917546645,0.008329313161499999
237.0,0.0008851784743500001,-0.0002702203654999999,-8.428661500000002e-05,0.003634814313
238.0,-0.00034863428285,0.00062273859465,0.003752984547,0.00389714966
239.0,0.0003722464851,-0.0016934095720000002,-0.00095972627195,0.0022489246005
240.0,-0.00100786898835,-0.0014691772035000002,0.0031822355825,0.0039432532215
241.0,-0.0005263407808499999,0.00044977230535000003,0.0018816846125000002,0.0027399413135
242.0,-6.696670399999991e-06,-0.0009920092278,0.0005498367325,0.001217470473
243.0,-9.04975687e-05,-0.0011034092122,7.441173095e-05,0.001647114268
244.0,0.0007035145035,0.001497172625,-0.0023506261914999996,0.0063073645085
245.0,-4.518128175e-05,-7.360986225e-05,0.0024722555475,0.003949644613
246.0,0.00021230528025,-0.00111441551635,-0.0021635428797,0.002704805713
247.0,0.00039041899005,-0.00057939709957,-0.000489479298323,0.001257053376
248.0,0.0004590906125,0.00101935900475,0.0013743734110999999,0.0019754229935
249.0,-0.00010703771611500001,-0.00085079346865,-0.00010407502379999998,0.0009102384501000001
250.0,-0.0002432414582,-0.0007626560479735001,0.00017077621875000003,0.0011518446646999999
251.0,-5.3115296399999985e-05,0.00027341346195,0.0027714031975000003,0.0028022733635
252.0,0.0019658119235,0.0009495999034,-0.00020624540164999996,0.0023493686825
253.0,-0.00015048232325,-0.0008484839174000001,-0.0009070226931,0.0013996118055
254.0,-0.0004427798354,0.0008120383899999999,0.0021404142709,0.0030673011725
255.0,-0.0012444021025000002,0.0015144326775,0.004209219065,0.005574912953
256.0,0.000219447068,-0.002004401941,-0.0005719227369,0.002095919792
257.0,-0.0005296929511,-0.001006251922585,0.0019194598460000002,0.0024213895695
258.0,0.0006326417753,0.0009118282356499999,0.0002685563419999998,0.0029829158665000003
259.0,0.0005440505122,0.000876503798,-0.0010002694528500001,0.0022728225285
260.0,-0.00029640975089499996,-0.00144656563585,0.0004979170035,0.0024696704974999997
261.0,0.00014125406469999997,2.035630329999999e-05,0.00054380185355,0.001151551114
262.0,0.00048208622465,0.0014373035289999999,7.032847715e-05,0.0019503946004999998
263.0,0.00010579352395,-0.0012658636505,-0.00028322946605,0.0013518037655000001
264.0,-0.00024334384865000002,0.00011237635750000006,0.0031549434164999998,0.004645096364
265.0,0.00079828203795,0.00182613624965,-0.0016231352540000002,0.002756886787
266.0,0.0022437889855,-0.0008773168505,0.0004990162742999999,0.004386832883
267.0,0.000650080792855,-0.000452751039245,-0.002595910426,0.002726396494
268.0,-0.001015343173655,0.00010388252879999998,-0.0022340517252000002,0.0031494262308
269.0,0.025714862951,0.005384945295,0.022670624665500003,0.036301681900499996
270.0,-0.0254409303,-0.003214107024,-0.01268746239,0.044321250145
271.0,0.004437207935799999,-0.00040666580165,-0.026480447562500002,0.02700965724
272.0,-0.0041337170675,-0.0025573038728,0.014934864615000001,0.06567988723
273.0,-0.041911515425000004,0.009058275134,0.22899722675,0.23326510644999998
274.0,0.02687492358,-0.0026144786605,-0.149907780375,0.152403599235
275.0,0.0059039054815000006,-0.000247819756635,-0.031942914035,0.06472285887
276.0,0.00027194928024,0.0003922419011,0.0030489195795,0.0031689298985
277.0,-4.82573078e-05,-0.0006859685243850001,0.00269735962,0.00289402242
278.0,2.27388775215e-05,-0.00037353238145,-0.001734343387,0.0021121984269999996
279.0,3.5318470500000075e-05,0.004361084435,0.00671114009343,0.010042678603999999
280.0,0.0014693253794,-0.0017134510028000002,-0.0009384813909899999,0.0031289366250000002
281.0,0.0008067647428999999,-0.0006886402252,-0.0026877231705,0.0029987860010000002
282.0,-0.0001791792045,-0.0001818151259,-0.002206874135,0.00222158848
283.0,-3.788019849999992e-06,-0.00037325552309999996,0.00059751044355,0.0012517420619999999
284.0,0.00043400488200000004,0.0009175477268999999,0.001441770037,0.001776488292
285.0,5.0205063949999984e-05,-0.00038232030955,-0.00014440791555,0.00075571850835
286.0,-6.01308991e-05,-0.00023045371668999997,-0.00011597940809499998,0.0008985971382000001
287.0,0.00011175454299999993,0.00044290210214500004,0.000308588140305,0.001494095738
288.0,0.00025803864904,0.00013851648635000003,0.000431345186795,0.00114374199695
289.0,-0.000123840717907,-0.00070538630885,-0.000369699544,0.0009513173429
290.0,-0.000163091766625,-0.000321099587115,7.894634975e-05,0.0005178818365
291.0,-0.00010731592820000001,-0.00011742913494999999,0.00024893397335,0.001028378404
292.0,0.0002543933201,-3.21429415e-05,-5.997354664999998e-05,0.00053044693325
293.0,-7.298320768499999e-05,0.00016705544470000001,0.0009114434943,0.0009484183282
294.0,-0.00018781678995499998,-0.0009111895960499999,-0.0014791967595000001,0.001755615824
295.0,-0.00078968651015,9.299632500000014e-06,0.00011612293674999997,0.0015912630544999999
296.0,0.0052466667896499996,0.005746839988,0.00185571035678,0.0085252046
297.0,0.0001023199535,-0.0020153146995000003,-0.0157941343655,0.017801676922
298.0,-0.0024582543524499997,-0.0012613394749999998,0.00415057946,0.0120665355845
299.0,0.0046975640215,0.0054329405970000005,-0.0093010518155,0.013828843830499999
300.0,0.05872230317,0.043379720660999994,-0.019403134675,0.077157658148
301.0,-0.0239639784955,-0.044828289175,-0.08518192647,0.149382840185
302.0,-0.0151566674,-0.0014003470538,0.09859400165000001,0.09984725982
303.0,-0.005136479532,-0.004973738751,0.0139433512795,0.0184001960875
304.0,0.0029162727385,0.00174234463815,-0.0035016321139999997,0.0054709031844999995
305.0,0.0004838729399999999,0.0005500516624999999,-0.0012176153795999999,0.006062875497999999
306.0,-0.0171699819785,0.032118348465,-0.0123956013115,0.03870569433
307.0,-0.005462250947,0.026588590864,0.0017856078644500001,0.0367598368505
308.0,0.05051558694,0.05730373034,-0.02704116831,0.08103558982
309.0,-0.0026359547249999987,-0.0023379874500000022,0.02342362907,0.1220240844
310.0,0.000493699815,-0.01367860376,0.00575431622,0.025272123165
311.0,-0.0009734186060000004,-0.03754720214,-0.02985254743,0.061770458665
312.0,0.007516943113499999,0.0014183314149999997,0.008825111776,0.01999200823
313.0,-0.0043814014575,0.0052764452355,-0.008380144764999996,0.058701689355
314.0,-0.00158812403095,-0.0006211834957500001,-0.0004417814949999998,0.011908664329999999
315.0,-0.0005376909484,-0.00057144475045,-0.0006936545025000001,0.004920228158000001
316.0,-0.002134203025,0.00039486931484999997,-0.001717179196545,0.0034302882385000002
317.0,0.0007240747620000001,-0.001285116211,-0.001130626754,0.0068093848755000005
318.0,0.00024621085466,0.00043795060489999993,0.001253594852,0.0026614727065
319.0,-0.000368909154775,-0.000478173894875,-8.27491407e-05,0.0008284611939
320.0,-0.00052628203695,-0.002116962579,0.0034490531385,0.004109393251
321.0,-0.0005149590399500001,0.00103940921425,-0.0003110884245000001,0.0021224669275000003
322.0,0.00019824291879999998,0.00100594645185,0.002667347608385,0.00300550212245
323.0,-0.00045917673245,-0.0012248542023,-0.0003799539717,0.0014343058925
324.0,-0.0003196563202,-0.001581972064,0.0018799987725,0.002686265682
325.0,-0.0013844865725,-0.0008827378087000001,0.0005492366390000001,0.0026696911055
326.0,-0.00022921827165000002,0.0011565484355,0.0010317823434,0.001718460136
327.0,0.000125434895645,-0.0008840992643,0.00010506102279999997,0.001045835345
328.0,-0.000199790964105,-0.0013588619059,-0.00045286247495,0.0014466760663
329.0,-3.978274944999998e-05,0.0001781345037,0.00029129461915,0.001265261184
330.0,-0.00059715212625,0.0012754681667500002,0.00265240736575,0.0030668066825
331.0,-0.0002779238789,-0.00083587342295,1.0154490795e-05,0.0009122508589500001
332.0,0.00023292979314999993,-0.00084109046255,0.0014442436710000001,0.005070923697
333.0,0.002312231763,0.006216773718,-0.002807987963,0.007202741671
334.0,0.0002561220854,0.0015841455064999998,0.002334799138,0.004205024152
335.0,0.0009341177655000001,0.0009269678666999999,-0.016449486985,0.0178359932675
336.0,0.0015769104370000004,0.0005460335299999999,0.0025463799705000003,0.013408384379999999
337.0,-0.0016877337601,-0.0028625584755,0.0042882907075,0.006539926908
338.0,-5.231798149999995e-06,-0.0008207733660499999,-0.0008348636535,0.00117900687015
339.0,-0.000388479321335,-0.0016445012755,-0.00025176419190000004,0.0018618337065
340.0,2.353655305e-05,0.00079456523335,0.0013099778214,0.0016426321011499998
341.0,-8.929807319999996e-05,-0.0002058850105,0.0006902648466999999,0.0026037663715
342.0,-0.00023482839905,-0.0013348152838,-0.0018595217905,0.0025073848310000002
343.0,-0.000594225073,0.0007281809697500001,0.0014405845592,0.0018448837661000001
344.0,0.0004678826695,0.00065157352615,0.00112045881125,0.00211082305935
345.0,-9.035929925499999e-05,-0.00102934510655,-0.00037660569800000016,0.0025218299025000003
346.0,-0.00017668726835000001,0.00023583970150000007,-0.00016838647250000003,0.003857651687
347.0,0.00068328006885,-0.00012646114025000006,0.0005179414744999999,0.0024078490475
348.0,-0.00078203800765,-0.0014534458795,-0.0022747132645000003,0.0048464352105
349.0,0.0008553962598000001,0.00180621802775,0.00206046764435,0.0036481734279
350.0,0.00031516263384999996,6.173304649999994e-05,-0.00065034138055,0.0020655017455
351.0,-0.00086750603035,-0.0018155340588500001,-0.0014906347156,0.002852117253
352.0,8.756181170000002e-05,0.00034314217315,0.0015677770725000002,0.0018614747455
353.0,6.1925943465e-05,6.876536549999999e-05,0.00060949940915,0.002049573859
354.0,-0.0004891400891999999,-0.0012231750145000001,-0.0008398685695,0.0015748211975
355.0,-0.0006475663018,-0.00070692092305,0.000241132622,0.001144197664
356.0,0.00030270885838,0.0017447239814999999,0.0022753415855,0.003461555965
357.0,2.669968969999999e-05,-0.00086339915365,-0.0008905616216,0.0012660085429999999
358.0,-9.32442056e-05,-0.0009116054357999999,-0.00029024967065,0.0012033809677
359.0,-0.0008715111077,-0.0003264394187,0.001298564258,0.001597611792
360.0,0.00013499392200000003,0.0021067251815,0.0013387971789999998,0.0039221728915
361.0,-0.0003547958512,-0.00015959571749999996,-6.223030105000001e-05,0.0018793154095
362.0,0.000614360929125,-0.0010289118030500002,0.00070107774355,0.0018745434046999999
363.0,0.00018248335899000002,0.0004251547838,-0.00038503805705,0.00073098086165
364.0,0.00017573248469,0.0002048615601385,-0.00011327612335,0.00047272711015
365.0,0.00065666499465,-0.0001372397288,-0.00082374910145,0.001262357806
366.0,-0.00029151090286,0.0027730994645000003,0.00148241701021,0.0037698909835
367.0,-0.0001689084559,-0.001847689162,0.0008491956761499999,0.0025898020495
368.0,0.004021367464500001,0.0027284237475,0.004865882372999999,0.01725694623
369.0,-0.0024357456712,-0.0021194770325,0.0020630083174999997,0.007775826673
370.0,-0.0009930292169500002,-0.00047004703709999996,-0.0073199698685,0.007824239086
371.0,-0.0003446284955,0.00095266984305,0.0017434506145,0.0021478289695000003
372.0,-0.0010462621357,-0.00034211632900000015,0.0007336177753499999,0.0025767028785000003
373.0,-2.2714174649999988e-05,-0.00104175846195,0.000140008352245,0.0013760312185
374.0,0.0007107719576500001,-0.00101277228755,-0.00023739265000000012,0.004410370428
375.0,9.057984468499999e-05,0.00141708994065,0.0015053526367000002,0.0020747203886
376.0,0.00053923698735,-0.00026312275955,9.043672e-05,0.0007243702826
377.0,0.00015845926095,-0.0007215154028499999,0.0003749763835,0.0012836807415
378.0,-0.000272945699485,-0.0014246580424,0.00107274642755,0.00241249545465
379.0,-0.0039833833525,-0.00097008439345,0.014767200040000001,0.015340283495
380.0,-0.0015402645006,0.0018462815194999998,0.0088685539185,0.012630060640000001
381.0,0.000863876034,-0.0004635448739,-0.00218970393855,0.0026027563705
382.0,-0.00017695753224999998,-0.00105393875065,-0.0033106396375,0.0035910086964999997
383.0,-0.0013305555535000001,0.003313095304,-0.0089420084755,0.013314869815
384.0,0.0031767117735,0.003746546152,-0.016399671472,0.022367174004
385.0,0.0032380213,-0.00609404585,0.007771703752,0.01039334191
386.0,-0.0182870384535,-0.00138543032594,0.057167969289,0.0617403064475
387.0,0.004800811963500001,-0.0012389949285000002,-0.0030460843499999987,0.078697123725
388.0,0.0105238087995,0.0003581029534999999,-0.048067663411500004,0.0581660518205
389.0,-0.0015404853858,-0.0006186531534999999,0.004528439729500001,0.008583756133
390.0,-0.00024247810015000002,-0.0008025260805,0.001701998408055,0.00221459068915
391.0,6.208086699999995e-07,-0.00030527738900000003,0.0007887106368,0.00100312559065
392.0,6.812311225000001e-05,1.9029403749999996e-05,0.0003318980348,0.0008088592888999999
393.0,7.362041725e-05,0.0002732419275,0.00013063770649999996,0.0024565726439999998
394.0,0.0006223567054,-0.001387108164,0.0080869822965,0.0082829334065
395.0,0.005541922139,0.001214498313,0.005721388072,0.008187448750499999
396.0,-0.0056518529221,-9.071277955000003e-05,-0.0054706584605,0.00813710873
397.0,0.0091635238255,0.00406065653555,0.0065875501935,0.01299112526
398.0,-0.004054362652,-0.0011087984655,0.01984205801,0.02323332752
399.0,-0.00160331857682,0.0031726755184999997,0.0093495903285,0.0100480201825
400.0,0.000999262867,-0.0012877376964999998,-0.024101611925499998,0.024705385168500002
401.0,-0.004571082333,-0.0009498236255000001,0.008407766006,0.009979545364
402.0,0.0008533264548500001,0.0029757232585,0.0010694229321,0.0038838930445
403.0,0.00088275625015,0.0033009063927,-0.001985507839,0.0046670390744999995
404.0,-0.0004967917259,-0.0051206072549999995,-0.0028868591615000003,0.006604028983
405.0,-0.0004935187251,6.855939699999998e-05,0.00076141782975,0.0016649725630000002
406.0,-0.00136270812315,-3.150393749999994e-06,0.0028863836965,0.0033409289855
407.0,-5.5357382400000004e-05,-0.000772220024455,-0.00036281103944,0.00102078222995
408.0,0.00018251664234999999,-0.0009601717865,-0.00086510981725,0.0014275806214999998
409.0,-4.402689399999997e-05,0.0017794739313,0.0014996302711,0.0028499675025
410.0,0.0003503822338,0.002665900657,0.001750824608,0.003208610421
411.0,-0.0012921898025,-0.00300728822765,2.777739400000004e-05,0.0065826341069999995
412.0,-0.00034584308627,-0.001210090096,-0.00074786226285,0.0015290931435000001
413.0,-7.261259384999999e-05,0.00152897423,0.0016517057973,0.0023543446545
414.0,0.00027092895925,-5.92028681e-05,0.00061936035305,0.000720155667
415.0,-0.00031420247235500003,-0.0007575983271,-0.0004773972894,0.0010452659521
416.0,-0.0002647643959,-0.00095751630625,-0.0014443090001,0.0020026377600000003
417.0,-5.452162994999996e-05,0.001531172224255,0.0012637581675500002,0.0024487327073
418.0,7.020546735e-05,0.001002901662,0.001268439796,0.0026464328005
419.0,0.00022905746787499999,-0.0015736011759,-0.00076805582205,0.001853091498
420.0,-0.00041430129200000003,-0.0005422377989425,-0.001553171862,0.0017664047905000002
421.0,-0.00057098377912,-0.0001955384459,-0.00030434957449999996,0.001712001388
422.0,0.000646621739765,0.002675614126,0.0005486440873500001,0.003143454373
423.0,0.0026860423614999997,0.0023528994905,0.0050935737650000005,0.016980129305
424.0,0.002020367907,-0.01330089511,-0.030029629874999998,0.03292153801
425.0,0.021436194755,0.060292237975,0.0076298866405,0.06526683389999999
426.0,-0.02870611798,-0.046094368178299996,0.023013152170000002,0.06247332017
427.0,-0.0031044632535,-0.00018157726349999996,0.014918352878,0.020770404386
428.0,0.00070339312334,-0.001826310269,-0.0019327770445,0.002918887836
429.0,-0.00020156018025,0.00038414603615,0.000655238012225,0.0010888908472
430.0,0.0042840580770000004,0.002960324785,-0.004836496002,0.007358110136999999
431.0,0.0006115402635,0.00048582022799999994,-0.00159922629995,0.0032726186739999996
432.0,9.847627984999995e-05,0.00032098314668,0.00015440025805,0.001213760319
433.0,0.00027629508705,0.00023302085254999999,-0.00029880148095,0.0014881941665
434.0,0.0024529182435,-0.00192728544025,-0.008724717344,0.00950554902
435.0,0.00049684219285,-0.0005174723670549999,0.00017988392099999994,0.0017335014815
436.0,0.000239837408,-0.000266759387,-0.0005407849756,0.0006489460244
437.0,-0.00017521270414999998,-4.876489500000008e-06,0.0007347672808,0.0018895196395
438.0,-0.00048555448135,-0.00030701296225,0.000344860814855,0.00074855925935
439.0,-0.00041974917755499997,0.0019148951124499998,0.0018368642937,0.003221832262
440.0,0.0005472560512999999,-0.00115648691985,-0.001245266107,0.0026138965085
441.0,1.4666002250000003e-05,-0.00067930428115,-0.00144638977345,0.0016566555275000002
442.0,1.9953262050000003e-05,0.00102813754745,0.00038673715929999996,0.0016667959313000002
443.0,0.000167937730155,0.0015370194577,-0.00014054945750000014,0.0024768832905
444.0,0.0010707533332499999,0.0020863714515,-0.0042074236384999995,0.0085130784625
445.0,-0.0008851211568999999,-0.001934940114,-0.0006522819007,0.002385399026
446.0,-6.601758365000002e-05,0.0018474357189999999,-2.096499335000002e-05,0.002057787684
447.0,0.000106034878005,-0.00051911415045,-0.00017733685899999998,0.0008662062928
448.0,0.00013986762680000004,-0.00013893707349999992,-0.003249254288,0.0039451149575
449.0,-0.00115103940875,-0.001904879407,0.0031423797605,0.004494779865
450.0,0.00019705098799,0.000999292689815,-0.00040631029779999994,0.0013253207434
451.0,-0.00016033236966499998,-0.00123654590586,-0.00103262708505,0.0019461321020000002
452.0,-0.000882006346,-0.00014329348077,-0.0004659953422,0.00105966598435
453.0,0.0004846071115,0.0014788787905,0.00073607608555,0.0018804612185000001
454.0,-0.000279196711525,-0.0012110571935000003,-0.0008366298406,0.0041788205710000005
455.0,-0.00080237642625,-0.00076132458635,-0.0011691814336,0.0020402166965
456.0,0.00040902568975,9.650082499999997e-05,0.0007937869201499999,0.0016600741609
457.0,0.00013997581304999997,0.0003356633607,-0.0005625195086999999,0.0018173216955
458.0,-0.0005533232961,-0.0011725231067,-0.0013602414426499999,0.002281634486
459.0,-0.0004410427361,-0.0009801438292,-0.0006789887007,0.0016059310475000001
460.0,0.00020096302439999994,0.000846318203165,-9.974856705000001e-05,0.00128570027285
461.0,0.0002660198621,0.001880714693,0.001090006259,0.002189969855
462.0,0.00055651525836,0.00015609149425000005,-0.0021109842837999998,0.002523260419
463.0,-0.00046039543174999995,-0.0012433316672,-0.001556571057,0.002436778327
464.0,-0.00044515954715,7.411576894999995e-05,0.0002921396689,0.0016589694175
465.0,0.00013162715897499999,0.00027144943714999995,0.00031499365800000004,0.0021356190759999998
466.0,-0.00127964517945,-0.001714614157,-0.00022525730880000003,0.0022967472
467.0,-0.00011507830781500001,0.00102808376375,-0.00014255117349999994,0.0026348368025000003
468.0,0.0002435116079,-0.0005069966964649999,-0.00014751517286499998,0.0006741793139
469.0,0.0001743686906,0.001557433194,0.00109703742705,0.00211032708
470.0,0.00057173009935,-0.001152539918865,-0.0012945481875,0.0025068896
471.0,0.00028412135365000004,-0.0014362567865,-0.0010591393461500001,0.0020639454535
472.0,0.00046337895805,-0.00060047466511429,-0.0013985617253,0.00161425008585
473.0,0.00015763884786499998,0.00107710666415,0.00110590836165,0.0015774820747
474.0,0.0002182485837,-0.0010029583959,-0.001444969742,0.001810062884
475.0,0.00040505998585,-0.000720734805,-0.00080243465425,0.00119550216835
476.0,0.00025344135985000003,0.0012320112917,0.001093826227,0.0020077053215
477.0,-1.5868844999999705e-06,-0.00126565667565,-0.0009810397327,0.0020335088745
478.0,-0.0003168094406,-0.00064353564385,-0.001302647952,0.0015922449069999999
479.0,0.000204125088275,0.00041569919345000006,0.0008819417882000001,0.0012031071025
480.0,0.002720622793,0.0023271159165,-0.00574565958,0.006976036678500001
481.0,0.0006704049701,0.000707859931,-0.0047482194576,0.005961053788
482.0,0.005759538833500001,-0.0052567789975,-0.0016559750348500001,0.008181160343
483.0,-0.00105119065175,0.0021190568633500002,-0.004636692004,0.0058803994334999995
484.0,-6.247620674999999e-05,-0.0011000046554000002,-0.0031855237399999996,0.003992969385
485.0,0.00038711329255,0.0020089650873499998,-0.0005638426439,0.002224127088
486.0,0.00020773967904999998,-0.0008958756466999999,0.0010878087075,0.0027033576235
487.0,-0.0004970980991,-0.003180329371,-0.0008456385649,0.003328168567
488.0,0.00077207721585,-0.0008019067007,-0.004080135955,0.0042579197095
489.0,-0.00025204663605200004,0.0015618700535,0.0031958408060000004,0.0035729770964999996
490.0,-0.00045041452555,-0.0012815310733,-0.00035720135715,0.0018776265229
491.0,0.00056690715615,0.001699230909,-0.0065819195555499995,0.008031659222500001
492.0,0.00239912857625,-0.002119997238,-0.007960310334,0.015223740052
493.0,-0.0005987548297000001,5.703778620000003e-05,0.0021858970134500002,0.002794582621
494.0,-0.0003029068329,-0.002240757476,0.0007307407894999999,0.0034475003404999998
495.0,-0.00014494799815,-0.0004113257225000001,-0.00131350819385,0.0024228691439999997
496.0,0.00087771803715,0.002270399694,0.0006963315000000001,0.0025703654499999997
497.0,-8.269461720000002e-05,-0.002253789094,-0.00114866286555,0.0025830172165
498.0,0.0004076854321,-0.0016417288137,-0.0033724404595,0.0041265994694999995
499.0,3.2161924e-05,0.0016040980449499999,0.002789870587,0.003280990819
500.0,4.166211734999998e-05,-0.0005376157043,-0.00155501604765,0.0018615334475
501.0,-0.00025370501340000003,-0.0024040251455,-0.00175246472175,0.0034188445325
502.0,-1.473752234999997e-05,0.00102616475655,0.0013954693374999998,0.004548304639
503.0,0.001321190966,-0.00038760495995,-0.0034208801895,0.0062422250615
504.0,-0.0005296526235500001,-0.0018157845684999999,-0.0009746957574999999,0.003212514325
505.0,-0.00010585242094999998,-0.00010294083494999997,0.0005932623684999999,0.001980897138
506.0,0.00029566434586,0.0008452271010000001,-6.747767599999993e-05,0.003036602812
507.0,-2.687489019999999e-05,-0.00161599073165,-0.0020852297355,0.0027541653115
508.0,-0.00083248774465,-0.00032547614009999996,0.0009022452569999999,0.0029130136410000004
509.0,-2.879000214999996e-05,0.00127295769085,0.0006522948548,0.0018407368424999998
510.0,0.00026168329325,-0.00239629944,-0.0010721734882999999,0.002774370551
511.0,-7.052153495000001e-05,-0.00023563065110000005,-0.00116510983955,0.001572877629
512.0,0.0001095217451,0.0010205016772000001,0.00141272720105,0.003002587807
513.0,0.0006020814226,-0.001968186942,-0.003640385203,0.004181945278
514.0,-0.00029462913100000005,-0.0015503370337,-0.00016234345119999998,0.0024558710454999997
515.0,-0.00021866307480000003,0.0012917989639,0.0007970930835,0.0016327896805
516.0,0.000426467676984,-0.0018520511175000001,-0.00109633038465,0.0022654897795
517.0,0.00021144933545,-0.00082720645495,-0.0011376370195,0.0028201667125000002
518.0,-0.000126918761845,0.00099183036025,-0.001708533348,0.00220938855905
519.0,-0.0003108898333,-0.0016116381453,0.000109453651335,0.0016634690972499998
520.0,-0.0012868700355,-0.0026843171595000003,-0.0006353643440000001,0.005330186698500001
521.0,0.0017688724,0.001858378322,0.000631438274,0.004028563754
522.0,0.00017932109894999997,0.0004986013049999999,-0.0008208200784500001,0.002709677215
523.0,-0.00018666434199999995,-0.0003504723174999999,-2.2950787499999986e-05,0.00208603061
524.0,-0.00029790865975,0.0004349042395000001,0.0018850613509,0.0029651974275
525.0,-8.622743850000001e-05,5.627732364999998e-05,0.00245007495015,0.0032981587039999996
526.0,-0.00010213989071000001,-0.0046064107025,-0.00240890482,0.005366372155
527.0,2.5156698250000003e-05,-0.00099451756955,-0.001444359294,0.0017713273675
528.0,-3.8705330000000406e-06,0.0006947534079,0.0004490968183,0.0018968562585
529.0,0.00020896921195,-2.426008909999999e-05,8.534237650000009e-05,0.001252297058
530.0,-4.275137895000001e-05,-0.00141712118115,-0.00064005463285,0.0016406774965
531.0,-6.429647214999999e-05,-0.00086388829735,-0.0007488609330399999,0.00126153005705
532.0,0.0002020534,0.0009023487421500001,0.00115860375675,0.00158283038965
533.0,3.42994166e-05,-0.0012821219165,-0.001344771556,0.0019321807605000001
534.0,-0.00055818270445,-0.00210153166,0.0006875903279,0.0023455993105
535.0,0.0003926397493,0.00138325370405,-4.8323223999999936e-05,0.002121706362
536.0,0.00044263131215000005,0.0007215139202,7.461629550000002e-05,0.0018063257275
537.0,-6.727919705000002e-05,-0.00117230541475,-0.00141133076505,0.0019256802824999999
538.0,1.759747244e-05,-0.002498117323,-0.002000118053,0.003200214377
539.0,-0.00025639516605,0.00135953982645,0.00097128408105,0.0019779234620000002
540.0,0.00017685612080000002,-0.0002828855875000001,0.00014014386000000005,0.0024410098715
541.0,-0.0008194061706,-0.00191109105695,-0.00118013524325,0.0024251644624999997
542.0,-0.00045136181755,-0.00028776368439999996,-0.00044390067504999995,0.001635751009
543.0,0.000684575689275,0.0019015693889999998,0.0020849324975,0.002978699126
544.0,-1.9200093699999995e-05,-0.0012843112311,-0.0008037841292,0.00161497671235
545.0,-0.00051485072801,-0.00141681795135,-0.001360451832,0.0021683203135
546.0,0.00032404893254999996,0.00163586169035,0.0017462787515,0.0025069295705
547.0,0.00018248962939999998,-0.0006528575243000001,1.4102613500000037e-05,0.0021128088055
548.0,-9.615195447500001e-05,-0.001973082508,-0.001326743678,0.00238969027
549.0,0.0005540098337500001,0.0012753258972000002,-0.00124198459455,0.0019914470266500003
550.0,0.0005458859437100001,0.0042085232835,0.0024369388807,0.004935967742800001
551.0,-0.00043943202734999994,-0.0018853996435,0.0010518309886,0.002446527887
552.0,-0.0006190203674999999,-0.0029227043324999997,0.004566292695,0.0095906517305
553.0,-0.0015138124011,-0.0006260006315000001,-0.0013190073068,0.004212199362
554.0,-6.662368064999999e-05,0.0007631329940000001,0.00108200312125,0.0024039585625
555.0,5.972923424999994e-05,-0.0006634187211000001,-0.0003749597247,0.0013334643115
556.0,0.000408139645885,-1.6475806249999984e-05,0.0005708122372999999,0.00112302320335
557.0,0.0004797493902,0.00029057582874,0.0007512465566999999,0.0010920595941
558.0,-8.50413789e-05,-0.00078115908215,-0.00038274433739,0.0011052577453
559.0,1.2312632499999804e-06,0.00031114288715,0.0003305748493,0.0007880174063
560.0,0.0005923827594,0.0007492089301,0.0006628793083,0.0019130535951
561.0,0.0057764574495,0.0007177007628050001,-0.024627859460000002,0.0253448072045
562.0,-0.0034440782285,-0.002396791499,0.01107918961,0.042901509729999995
563.0,0.0022702015049999996,0.0020126668969999996,-0.008399039294999997,0.06417814048
564.0,-0.03417853533,0.002963352423,0.1496027716,0.15348597
565.0,-0.0048044698000000025,-0.0058903715029999994,0.013786994750000003,0.16709555110000002
566.0,0.010492224560000003,-0.00418821229,-0.03660307619999999,0.2498778157
567.0,0.028718084115,-0.0003168479899999998,-0.13597909433,0.139865813255
568.0,-0.045324169755,0.0030094743865000002,0.18941551704999998,0.1949685478
569.0,0.004900199966,-0.003088471855,-0.02219582774,0.02298221115
570.0,0.015418056920000001,0.0020848988226450003,-0.06808138332,0.069877718
571.0,-0.00036387604795000005,-0.0004400450680000001,0.008211069478,0.008555200979
572.0,0.0009031515164000001,-0.0012034185895,-0.0006832676624999999,0.0027918208375
573.0,0.001982299152,-0.0006989513605,0.0006322589994999999,0.0046812625915
574.0,-0.00103322287825,-0.00085124086155,0.00123758450615,0.0019267758633500001
575.0,0.0002022121083,0.0012568467315,0.0016278151475,0.0023573762945
576.0,0.00018104775025000003,-5.071453054999997e-05,-0.0005856201497835,0.00127260571975
577.0,-0.0008768181307,-0.0018657445095,-0.0017225414005,0.0027295679385000004
578.0,-0.0003882916164,-0.0006630895818999999,-1.6492371499999983e-05,0.0013173311145
579.0,-0.0004742594308,0.0009073204299500001,0.0016368461874999999,0.0019489095179999999
580.0,0.0007571771526999999,-0.0005992490741000001,-0.00034728234489,0.0017280172815
581.0,4.308816390000001e-05,-0.0004663273049499999,-0.0006780975758500001,0.0015200804025
582.0,-0.00022885896605,0.0003886958391,0.0007108996038000001,0.00100800557835
583.0,-5.885769450000004e-05,-0.00151669053375,-0.0016306459255,0.0025079026224999997
584.0,-0.00023678042145000003,-0.0010485620258,-0.00026652283815000003,0.0015655209715000002
585.0,-0.00016492788964999998,-0.0003265543115,0.00098060881344,0.0013398332321
586.0,0.0005389898196,0.0008218531902000001,0.00103690965075,0.0016876267456
587.0,-7.181211955000004e-05,-0.00136844333905,-0.0013612214951500001,0.0021702487565000003
588.0,-0.0001618852129,-0.0009041783758,-0.00045141170475000004,0.0014664548705
589.0,0.0005928095311,0.0002799731857,0.00085567772,0.001077957553
590.0,0.00014831540725,0.0013410833245,0.001744603325,0.002339282224
591.0,0.0003195915134,-0.0019597005999999998,-0.0009522091179000001,0.0023420457085
592.0,0.00043437759365000004,-0.0014996399415600002,0.00011388681050000012,0.0037041184215
593.0,-5.7716728349999996e-05,0.00031957512850000003,0.0024617923443,0.0041985649525
594.0,0.00027497304494999996,-0.00035645481310000006,-0.000192729422945,0.00097877172585
595.0,0.00015264853150000006,-0.0025439164635,0.00161875807915,0.0038757752614999997
596.0,-0.00047530778275,-0.0005681170298999999,-8.471230449999989e-05,0.0024799044230000003
597.0,0.0003428176438,0.0017503687979999998,0.00121051546497,0.0026149459475
598.0,-0.00017317858589999997,-0.00174288262,-0.0008350036258,0.002007124091
599.0,-0.000468130241725,-0.0010082178121,-0.00018146814659999997,0.0013244805335
600.0,-0.0002448040919,0.00054946073955,0.00146089848265,0.00194032605265
601.0,0.00031080796145000004,-3.299113349999991e-05,0.00058233299215,0.0020024316615
602.0,-0.0007007223117499999,-0.0016001471575,-0.0008891676144,0.002074346502
603.0,0.0002250955349,0.0006940487599,0.0011311230914999998,0.002817827825
604.0,0.0003911856512,0.00026651111900000005,0.0007516623783499999,0.0021067660255
605.0,-0.0005240096738,-0.0011810298538500001,0.00037651737049999997,0.002176640924
606.0,0.00022875692002999998,5.304133040000001e-05,-0.0004065611064499999,0.0010028283033
607.0,0.000171602792665,0.0015559041708,0.0028678846785000003,0.0033386887735
608.0,-0.00022527072170000002,-0.00160769133,-0.0010065680217,0.002030998585
609.0,-0.0005824259235500001,-0.00073000593405,-0.0006263182777,0.0012035370389
610.0,0.0005515751123,0.001631789816,0.00206231989,0.0027525555725
611.0,4.2986152145e-05,-0.00086443154298,0.00015053470785,0.00126106636065
612.0,-0.0008971838021,-0.00106028172365,-0.0007353146563,0.00162618419625
613.0,3.215138270000001e-05,0.00076718503545,0.00099033199915,0.0013328061004000001
614.0,0.00029322235645000004,0.00070585353155,0.0013325923996,0.002336314946
615.0,-0.0007173396811,-0.001435712729,-0.001213795542,0.002012249208
616.0,-0.00030367384305,-0.00030675987415000003,6.690877050000014e-06,0.0015547638425000001
617.0,0.00029851489145,0.00241757301,0.00097114061595,0.0028638653815
618.0,-0.00016029434069999998,0.00028354433870000006,-3.181152985e-05,0.00110696028355
619.0,-0.00051413083165,-0.00098907797595,-0.00049153688435,0.0012683019585
620.0,-0.00042865347055000004,0.00067449734515,0.0007243333157,0.00139116125745
621.0,3.286496294999999e-05,0.000829076625,0.0017739147125,0.0020299138225
622.0,-0.0001515613654,-0.0006722045740500001,-0.000451562773255,0.0008592134892
623.0,-0.0005736150779,-0.00026939475825,-0.0004871979756,0.0012613025836
624.0,0.00010870664848,0.0017278749364999998,0.0020095552615,0.00265880148
625.0,-0.00012862245445000001,-0.00091708633665,-6.527465759e-05,0.0009340990181
626.0,-9.80212901e-05,-0.00046341709874999997,-9.8899541e-05,0.00104334806005
627.0,0.0013217683747,0.0048765176825,-0.00159080982375,0.005501153469
628.0,-0.0002232282401,0.000774209941,0.0012979009325,0.002785379971
629.0,-0.00016020094344999997,-0.0021420250760000002,8.691232599999997e-05,0.00291096361
630.0,0.00118450805385,0.0021599521115,-0.00298091250585,0.0043340484244999995
631.0,-0.000353834765275,0.0013916779527,0.002211731507,0.0027278422270000002
632.0,-5.208767549999999e-05,-0.00111982175685,0.0008523699955,0.0019032651694999999
633.0,-0.0007418476948,-0.0013757223835,0.00013559139745,0.0017182056275
634.0,-0.000405283772605,0.0013474029405,0.0020887823705,0.0025555988565000003
635.0,3.2133374650000096e-05,-0.00023694098335,-0.00014756746150000003,0.0021394247155
636.0,0.00017230579964999998,-0.0008445893727,-0.00010863762105000001,0.0010274054582999998
637.0,8.676548049999991e-06,0.0006240923655,0.0019982042333,0.0023466501097
638.0,0.0005493566038,0.0033271159445,0.00027185547455,0.0034207082575000002
639.0,0.00150091124388,0.002144549341,-0.0022662259575,0.005989784663
640.0,-0.00338957824,-0.002007684684,0.005524700576,0.006785451708
641.0,0.000273089835385,-0.00020420905100000002,0.00224586857895,0.002952189146
642.0,0.0001599203188,-0.00036610759474999996,0.002097218606,0.0025430959874999997
643.0,-0.00035710727305,-0.0004863286123,-0.0017025187274000001,0.002326920019
644.0,0.0004517336207,0.0019542509785,0.0008860959092999999,0.0024474906130000002
645.0,-0.00025637796165,-0.0015739044211,-0.00036087201445,0.002042910688
646.0,-0.0017941090001,0.0017859751515,-0.00046441583949999993,0.005161722304
647.0,0.0029974323330000004,0.004321920287,0.0015330776392500003,0.0064511405335
648.0,0.0017712744062,0.0010640317295,-0.0009359735155,0.006411493909
649.0,-0.004697029077,-0.0065940843005,0.005552826659,0.011802808314
650.0,0.0013844986612500001,0.0004797918394999999,-0.0041798645580000005,0.0131938726545
651.0,-0.0008373613305,-0.00165145967,0.00136639642785,0.002316513776
652.0,-7.135694729500001e-05,0.0011954535766,-0.00181524836545,0.0026282249045000003
653.0,0.0002012496983,0.0008800684581499999,0.0015269887003,0.0025090877163
654.0,-0.00049892879165,-0.002489780221,-0.001405584667,0.0031974643215
655.0,-0.0056961375005,-0.0053440957825,0.018305011899500002,0.020686008861999998
656.0,-0.0051748579845,-0.01326733749,0.061829170904999994,0.08174495080500001
657.0,0.022778951494999998,0.011325469807549999,-0.08152510693500001,0.086393283945
658.0,0.0100750528455,-0.011131024575,-0.03851964041,0.06723948003
659.0,-0.005930672258,0.010994709469999999,0.0008822736155000002,0.014240265455
660.0,-0.001828365457,0.001649415408,0.00182267968265,0.0089502790815
661.0,0.0012344569287,-0.00023350490865000002,-0.007949601024,0.008085960468
662.0,-0.057661879420000006,0.03886449677,0.30936579391499996,0.325404054525
663.0,0.056231351425,-0.02129136145,-0.31596016250000003,0.3216431699
664.0,0.009420325782499999,-0.03442931444,-0.045552981725000004,0.096986782145
665.0,-0.027841498562,0.02333849675,0.141735795525,0.146478932985
666.0,0.01741852924,0.01094367026,-0.03596609106,0.04143342595
667.0,-0.0005539893425000001,-0.0018682604467000002,0.006326204876,0.007757853207
668.0,-0.0004864667280000001,-0.0008613184397,-0.0066797596025,0.0069369975405
669.0,-0.0005304185794,0.0007923210287,0.0013831719485000002,0.0026375023025
670.0,0.0002433555109,0.00039908125425,-0.00119344561425,0.0018709029980000002
671.0,0.003543906964,8.249236050000006e-05,-0.013212659169,0.013852916215
672.0,-2.8506973499999987e-05,-0.0023190388979999997,-0.0024869707805,0.0074961108459999995
673.0,-0.0019052444875,-4.019432895000001e-05,0.0022922313303,0.0038075209485
674.0,3.071463050000002e-05,0.00037053331034999997,0.00078263431195,0.0017681841500000002
675.0,0.000766785667,-0.00110900437345,-0.0024432964675,0.0028313169335
676.0,-0.00104063119975,-0.00013910169265,0.0013088525258,0.0017893894915000002
677.0,-1.0054542535e-05,0.0014000480705,0.0010196557996499998,0.00227351328
678.0,0.00027331842715,-0.0010672971031,-9.019297605e-05,0.0014565758235
679.0,-0.000512488649795,-0.00090702778905,-0.00038691996555,0.0017813124945
680.0,-1.1884315000000134e-06,0.0019081959663,0.00152261186075,0.00247017924655
681.0,0.00075276650261,0.0013697518860000001,-0.001100301254,0.003422546316
682.0,-0.001248999549,-0.0015250973895,0.0004248089915,0.002030225334
683.0,0.002913517574,0.0052439477635,-0.004700859910000001,0.007935120755
684.0,-0.0029250314214999996,-0.006001738388500001,0.008923284636,0.011916618386499999
685.0,-0.00151895538585,0.00055396577855,0.00398962355385,0.0052694233795000005
686.0,-5.4372707349999985e-05,0.0009565139861,0.00029564185255,0.0014623866140000001
687.0,-0.001177236376,-0.0016782198784999999,0.003033765085,0.0051226605605
688.0,7.094153400000002e-05,0.0007592182123,0.0004443022805000001,0.004603307307
689.0,-8.134298509999998e-05,0.0014059747407,0.00077865424095,0.0021460262484999998
690.0,-0.00048672150134999994,-0.0013121677867500002,-0.0012786965384,0.0026396272965
691.0,-0.000582450555825,-0.00048267198200000003,0.00137888790375,0.00171156971475
692.0,0.001769630919,0.00312912902,-0.002480706109,0.0043677162
693.0,0.00031154221336500003,-0.0008471415985500001,-0.00197915078195,0.0032960726330000002
694.0,-0.00031249957869999997,-0.0007422651968,-0.0004386391774,0.0010606072403
695.0,-0.000148373201745,-0.00038158963099999997,0.0046476013365,0.005002406696
696.0,0.00095516252865,0.0014752096085,-0.0016267853174,0.004581648525
697.0,-0.0005574375551000001,-0.0007736597462,-0.00040359625034999994,0.0010430101130999999
698.0,-0.00014753424675000002,0.0012038827695,0.0011956384335,0.0019179442940000001
699.0,0.0005804292663499999,0.0001765758624,0.0004150196545,0.0018835227364999998
700.0,-0.00027545749475000003,-0.000782485241,-0.00014428203405,0.0011687235355
701.0,9.528420834999996e-05,0.0014971409693,0.00148262663115,0.002661328903
702.0,0.0004798234486,0.0005848657954999999,0.000461758303835,0.0018839957615
703.0,-0.0003533944347,-0.0013585355983,0.0001402467640000001,0.003300111841
704.0,-0.000421144881,0.0013770913627500002,0.00127642098405,0.0022938878025
705.0,0.00020438012,-0.0009739924924100001,-0.00103751165515,0.00155928664985
706.0,-0.0008467437528,0.000711369396925,0.0005870356075,0.0019797003620000003
707.0,3.936902995000001e-05,0.00017383452100000008,0.001580457032,0.002233740121
708.0,-0.00013544801485,-0.0014408740745,-0.00121419475305,0.002138425466
709.0,-0.00025554459485,0.00016991367694999996,0.0012857278115,0.0026742565264999997
710.0,0.002147941188,0.002437243773,-5.334597499999957e-06,0.0051031647389999995
711.0,-0.00133832103765,-0.0036465950405,-0.00024410192035,0.003985745004000001
712.0,-0.00042918226085,0.00150854151455,0.0028226574445000003,0.003247470379
713.0,0.000153136220485,-0.0006173611025,-0.00127973816575,0.00145944389975
714.0,-0.00029075640579999997,-0.00063403539345,-0.0005078474995,0.0031679576775
715.0,0.0091685236985,0.004669839048,-0.03195472312,0.033594351385
716.0,0.010941317133,-0.00042758986705,-0.041894402555,0.054644157869999994
717.0,-0.03483657338,0.001089641779,0.1457712116,0.1498800197
718.0,0.020208646294499998,0.0044075657510000005,-0.079989710255,0.10207382827
719.0,-0.016648928044000002,-0.004828281709500001,0.06528437685899999,0.0700204447265
720.0,0.0180123850575,-0.0020756735172,-0.085920764535,0.087817909035
721.0,-0.041800565035,0.0014281035764999999,0.1676444382,0.1728961474
722.0,0.044170885615,0.0007880788279999999,-0.171160377165,0.178359544575
723.0,-0.03128106512,-0.001353391607,0.133025221895,0.13666403571000002
724.0,-0.046471906869999996,-0.008019480481000001,0.18915568015,0.195315817
725.0,0.0106700815285,-0.0010795777429999996,-0.06037054613,0.061883394835
726.0,0.0075474046785,-0.0030535655625,-0.032554216355,0.05507882318
727.0,0.008465832817,-0.0021951504705,-0.0355870638555,0.0366848503145
728.0,0.022764291984999997,-0.00119679878265,-0.10839484901000002,0.11078449745499999
729.0,-0.007427369180000001,-7.551418750000006e-05,0.040507240175,0.04125345645
730.0,-0.0008088097239,0.0026754640425,0.004967764337,0.0078209699685
731.0,0.0007825020620680001,-2.1592749250000007e-05,-0.0009697643111000001,0.00137213080395
732.0,0.0067304707995,0.00120154437455,-0.02634174339,0.027222933195
733.0,0.005557039965,0.0024299901083,-0.0006167362079999999,0.0067178780995
734.0,0.0005131620894999999,0.0034347064940000002,-0.006774917582500001,0.0082895831545
735.0,-0.00191144503215,-0.00017959193215000003,0.003072370775,0.0044979985135
736.0,-0.00019842851906499997,0.0023236558454,0.002764768084,0.003629508599
737.0,-2.370657184999999e-05,-0.0012683736229999998,0.0005617641809450001,0.0015121110585
738.0,-0.0004494267644,-0.00111926230815,-0.00105381266956145,0.0017022856987500001
739.0,-0.0006874430578000001,0.0010226239306000001,0.0003248882918,0.0014045422325
740.0,0.00017720953490000006,0.0017804860997999998,0.002759858496,0.0034160296495000003
741.0,-0.00217372816105,0.00900741066,0.019273249111,0.02228080025
742.0,0.0021123717285,-0.0057066028045,-0.019243396795,0.020403255855
743.0,-0.000436975187,0.002135706771,0.00399367209,0.004549901921
744.0,-0.0016137413139,0.00111572735585,0.0065000840485,0.0086282345795
745.0,0.00201648686925,-0.0038903880425,-0.010296166246,0.011623317179
746.0,-0.00324133440965,-0.001401084725,0.00500230316755,0.007230085233
747.0,-0.00010060063569999997,0.0015579423644499998,0.00272482403965,0.0033582570529999997
748.0,-0.0005450993296,-0.0004612982226,0.0012009903565000002,0.0018095057687
749.0,-0.00043724606965000004,0.00058942492138,0.0009644130019,0.0015183031055
750.0,0.0018395849038000001,0.005722917021,0.0053160740633,0.010726792625
751.0,-0.0005924179625,-0.00174225661,0.00047831240999999993,0.005506449409999999
752.0,-0.012309076395,-0.0033363696408,0.036145394115,0.038522557279999994
753.0,6.8022974525e-05,0.00143984776562,-0.0021030144792,0.0026648884139
754.0,-0.00024077051099999998,0.0005317893605,-0.00017566524684999997,0.0009168003478500001
755.0,-0.00012595567145,0.00027177888469999997,0.000821146253545,0.0015388760715000002
756.0,0.00022186652310000004,-0.00011894567620000001,0.0005662892170030001,0.001146581154
757.0,0.00020534888495,-0.00060439514175,-0.00132730843565,0.0023476218055
758.0,-0.000237577336865,0.00046889007310000003,-0.00022278325265,0.0008014099342
759.0,-4.959555443e-05,0.00011332847256899999,6.994586120000001e-05,0.0002665681493
760.0,-0.00023931766375000002,6.292168024999998e-05,0.00021671611293,0.0005441697824
761.0,0.00251532341695,0.0031272071875,-0.0037055596592500003,0.005656029495
762.0,0.00178138066237,0.0007027997270000001,-0.0038785408959999997,0.004760550395
763.0,-0.0005736028564999999,0.003883762061,-0.001967563387,0.006074607964000001
764.0,-0.0023350770695,-0.007677923797500001,1.1044120499999937e-05,0.008581933461
765.0,-0.0012004199739,0.0009182690924999998,0.003575912337,0.0053011548055
766.0,-0.0007258520700999999,-0.00169490332005,-0.00015435072950000005,0.003131397987
767.0,-0.000686437056,-0.0002052833113,0.002392095493,0.00268708431
768.0,8.283618509e-05,-0.0009021409742,0.0008862742278,0.001267360319
769.0,-5.285456939999999e-05,-0.00035143415944999994,-0.00023625619874999997,0.00106305617295
770.0,-0.00033243646494999997,-0.0002403859604,0.000507827736265,0.0009362721966000001
771.0,0.00092600739335,0.0016490928910499998,-0.00098364984215,0.0026008662705000003
772.0,-0.0002948023361,0.005119918455,0.0011255925833,0.0053331516054999995
773.0,-0.00163848744475,-0.001056046462545,0.004305679721,0.007714855825
774.0,-0.0013940878119,-0.0010726257619999998,0.0048144180765,0.0059970060525
775.0,0.0061170169629999995,0.0018324185480000001,-0.0066591653105,0.01031191508
776.0,-0.001966504866,-0.00201174373595,0.0017398054112000001,0.004754453128
777.0,-0.0008759500606,-0.0005045214477,-0.0001464503560000001,0.003439306331
778.0,0.00045075547165000004,0.0028426708725,0.00105756340915,0.0030985315340000003
779.0,-0.00011031792549999996,-0.00026656933785,0.0008979460988,0.001397249472
780.0,9.8436586905e-05,-0.00108174610805,-0.00024566259329999996,0.001307473414
781.0,-0.0006203873462,-0.0023694413395,-0.0011941037144,0.0035927240295
782.0,-0.0011548978782499998,-0.00010553179605,0.0012051371161,0.001679715744
783.0,-0.000483677980565,-0.0001237424371,0.0017752164096,0.001985450217
784.0,0.0013646171018,0.00085172573358,-0.0021621014046,0.0027457383262999998
785.0,-0.00090880356008,-0.002300872852,-6.771869912e-05,0.002552101125
786.0,-0.00121850461725,-0.00050504572745,0.0023808285629999997,0.0029618215975
787.0,-0.000403755743925,0.0005990285209500001,0.0011514784453,0.0018945946355
788.0,-0.00028087583135,3.289349399999996e-05,0.00136111367855,0.001996845675
789.0,0.00167216814145,-0.0020296643018,-0.0025213257701,0.003978319193999999
790.0,-0.0005885212540500001,0.0007281802055000002,7.095393300000008e-05,0.0066567835355
791.0,-0.0011216894444,0.000751653952,0.0027063143937,0.00433125126
792.0,-0.0013616898679899999,-0.0014666404415,0.00015691833745,0.0023116919055
793.0,-0.0002200077653,-0.00087082661765,0.000432484208,0.0011064595268
794.0,-0.0004510612127,-0.0009415454925,0.0002931846835,0.001084399092
795.0,-0.000149103689595,0.0008615142857,0.0013765982907,0.0017883349989
796.0,-0.00014784222685000002,0.0006075124563550001,0.00132474207615,0.00151420681535
797.0,-0.0006359994786,-0.001538959582,-0.00103878422075,0.0019895358695
798.0,-0.00060651977045,-0.0008089167428,-0.000207539956,0.001373230352
799.0,0.00017372133695000002,0.0013969401825,0.00161962798,0.002304602841
800.0,-0.0001327534316,-0.0013157323074999999,0.00071845781375,0.0016852397255
801.0,-0.00029927529359999994,-0.0011767698989,-0.0005506234672500001,0.0015369574505999998
802.0,-0.00011756981699999997,0.0026180077215,0.002097728322,0.003770572127
803.0,0.00016053557149499999,-0.00066685799972,-0.00034570435345,0.00107451112925
804.0,-0.00066731017145,-0.001611165031,-0.00047789249735,0.0018126797299999999
805.0,-0.00036944211324999997,0.002109377344,0.0018342661843499999,0.0028712403315
806.0,1.1765681150000017e-05,0.00021623470950000003,0.0003379162275000001,0.002015651479
807.0,-0.00063500592645,-0.00157955065855,-0.00048048232054999997,0.002078643356
808.0,0.0001526714266,0.0020561179262,0.00084213186355,0.0026022271454999996
809.0,0.00024874304765,0.0013509310894,0.00075333831625,0.00177676190805
810.0,0.00065686411735,-0.00089072947955,-0.00124412704945,0.001862972042
811.0,-0.00018710267785,-0.0005196452794,-0.00033693434665,0.0018395816085
812.0,-0.0001619245364,0.002491363083,0.002014698308,0.0032121651459999997
813.0,-0.00032772264653,-0.00029823188467,0.00020183969569999999,0.0009864887749
814.0,-0.00061301926775,-0.0011341893469,-0.00092630935855,0.0017047053405
815.0,-0.000383215436,0.0024840621252,0.001555495359,0.0036806304559999998
816.0,-0.00076219952875,0.00015170284649999996,0.000510197890495,0.001900437068
817.0,-8.685862205000004e-05,8.873334600000005e-05,-9.278503350000004e-05,0.0043425008155
818.0,-0.0005234282021,-0.0009375482821499999,8.552954714999999e-05,0.0014977151791000002
819.0,-0.001524402121,0.001528566694,0.0002648707561,0.002174965398
820.0,0.00041210521285,0.003053537441,0.002120767517,0.003810001732
821.0,-0.00048817627075,-0.0010985299684999998,-0.00157264416,0.0019802892444999998
822.0,0.0004320119727,0.00037243701955,-0.0021310517290000002,0.002221649262
823.0,-0.0002457436731,0.0010447471642000001,0.003067595608,0.0033311325804999997
824.0,-0.00029160862095000003,0.001173210988,0.0011544413136499998,0.0021076950059999997
825.0,-7.215041355000001e-05,0.0003727548162,-0.0003186565363,0.00074766444245
826.0,-0.0011480844182999998,-0.003448246515,0.0088365264765,0.009682618838499999
827.0,-0.0030054247108,0.00276595325765,0.0084323820555,0.0100870344918
828.0,-0.0036167909995,-0.00054186576645,0.0088433813385,0.0096710989325
829.0,-0.02252775052,0.0091301836465,0.11233977549499999,0.11505801347
830.0,-0.03870675034,0.022488278875,0.2157171608,0.22041310975
831.0,0.090466543905,-0.029145827819,-0.36716712295,0.38095024445000003
832.0,0.013301350925,0.00709645546,-0.06320679042,0.12346239879000001
833.0,-0.0031645302099999996,0.0036482363025,0.011429505105000001,0.046380977025
834.0,-0.004917495373000001,-0.0051465230449999995,0.0099263574355,0.022954251725
835.0,0.0022689205154999997,0.0050759943575,-0.00369537259,0.009240382563
836.0,-0.0018795973841,0.0022990723900000003,0.007734724970999999,0.009683688449499999
837.0,-0.00027284240945,-0.00044016012530000007,0.0014504766314999999,0.0033150817045
838.0,-0.0016927919054000001,-0.00144038356555,0.0012176579285,0.002726652159
839.0,0.00029626624959999996,0.002814374225,0.002960382141,0.004134540731
840.0,-0.00012649082825000001,0.00035138533099,0.0010021320912,0.0014049251888
841.0,-0.00072234834995,-0.0007536251863500001,-0.00040083022215,0.0019805040795
842.0,-0.0007307090541,-0.0006879998234,-0.00065390027,0.0016710795260500002
843.0,-0.00099376281115,0.0018741411895,0.00112398614528,0.0027155101135
844.0,-0.0011901298024,-0.00172024996575,0.00190389669695,0.0034713912
845.0,-6.977047351e-05,-0.00082458844,-9.064448486e-05,0.0008324844965
846.0,0.00018501189499999996,-0.000599977485,0.0008686289018,0.0015458682445
847.0,-0.00052760974005,0.0011487789305,0.002441649912,0.003151319788
848.0,-0.00022184771400000003,0.001278040085,0.0008241116464,0.001607651928
849.0,-0.00049739164375,-0.0011430261610499998,0.000330046166245,0.0013757187173
850.0,-0.00078542253195,-0.00109523648565,0.00015857236405000002,0.00154264739415
851.0,-0.000898263714045,0.001129102406,0.0022519029855,0.0029706263870000003
852.0,-2.201852464999999e-05,-0.000193759933685,0.0012482237233,0.001388800003
853.0,-0.00042976215986,-0.0013534613206499999,-1.1598534000000068e-05,0.002032456143
854.0,-0.0012304833130000001,-0.0007155390866680001,0.00064251711135,0.0017329413505000001
855.0,0.0005227029439,0.0031437965515,-0.0029964449735,0.0044094095465
856.0,-0.0025985014885,-0.001334356984052,0.0021592821429499997,0.0043034283755
857.0,-0.00018773660725,-0.00054930243415,0.00135440655372,0.00178317024305
858.0,0.00059634448235,0.00064316553785,-0.00111723250455,0.0015703198318000001
859.0,0.0021598997465,0.00012176044230000001,0.0006178461095,0.0024805847385
860.0,-0.00047603572530000005,0.000459404846,0.0013738993289000002,0.0015692520812
861.0,7.104053271000001e-05,-0.00060502704185,6.978128185e-05,0.0008020353686
862.0,-0.00059211559539,-0.002258343694,-0.00051122746775,0.0024166007695
863.0,-0.00038905422130000003,0.0002915200654,0.00065464941385,0.0011285657086
864.0,-0.00041388184305,0.0005888625358,0.0013973548568,0.0021129894775
865.0,-0.00062743252065,-0.0021953885845,-0.00046679071904999996,0.0028315262169999996
866.0,-0.00019390927399999997,-0.0003614742058,-0.00026332501405,0.00102388061445
867.0,0.000501488075385,0.0017853558495,0.0020795913695,0.0028488091449999997
868.0,0.000331257410625,-0.0006314204063,-0.0005380170301,0.0009441078639
869.0,-0.00022446975005,-0.0012609272632,8.604846300000002e-05,0.002179636641
870.0,0.0001584812495,-7.621979900000004e-05,0.00037707502975000003,0.0020165531449999998
871.0,-0.0007292138111,0.002076869801,0.00199473699,0.002970541468
872.0,0.00033020522837,0.00040579183430000003,1.4406389244999999e-05,0.00097269946415
873.0,0.0006214216324,-0.0001449889307,-0.0028325825855,0.003079161045
874.0,0.003742922764,0.007227927552499999,-0.003823118081,0.0091900506565
875.0,0.0007394416435,0.0063616352609400005,0.0124134569575,0.0150687496505
876.0,-0.003193014103,-0.0034646221055000003,0.0040218690840000005,0.012486365233
877.0,-0.000858487223295,-0.004451958951,-0.001754950976,0.004984108907
878.0,0.00010666187039999999,0.003176065444,-0.0003946269109,0.0032307092995000003
879.0,-0.001117894791,4.658843349999997e-05,0.001768061195,0.003872872494
880.0,0.0008646605978,-0.00170918959225,-0.002598409881,0.0034939656465
881.0,0.00019767977455000001,0.0010166251974399998,0.001484202812055,0.0024533995785
882.0,0.0008931038445,0.00020742515400000005,-0.00134520571175,0.0041877109875
883.0,-0.0008647862490000001,-0.001371280741,0.00098244834705,0.0039313826315
884.0,0.00022846785625,0.0009553167839,-0.00086909340815,0.002908465921
885.0,0.0008876570548000001,-0.00063791898,-0.0019213951046,0.0038033349345
886.0,0.00025280617755,-0.0018295954,-0.0025814566785000003,0.0032206539910000003
887.0,0.0008371006558,0.00025365928609999997,0.0034615338495,0.0035868817290000002
888.0,-2.9037553649999964e-05,5.1200473200000015e-05,-0.0003841513849999999,0.0031358902800000003
889.0,-0.0005442794645,-0.00146959982945,-0.001355085225255,0.0029376559159999998
890.0,0.0026710281495,0.001853585548095,-0.00023175636300000013,0.0044545443894999995
891.0,-0.0016960243272500003,-0.00050637793185,0.0019359315913,0.0030351115227499996
892.0,-0.0002898249944,-0.0022291110315000003,-0.0010719948753500001,0.0025560382625
893.0,-0.000240181979,0.0008445282375000001,0.00224978865245,0.003972523234
894.0,0.0007498035912,0.0008778568340000001,-0.00040343180114999996,0.0027765299125
895.0,-0.0007630682973500001,-0.002568962646,-0.0010455420774,0.0033895488725000002
896.0,2.144715365e-05,-0.0006353235895,-0.002388871211,0.002472003581
897.0,-0.00023104454019999999,0.00151881332921,0.0010394828131,0.002389514611
898.0,3.9010822300000004e-05,-0.0011551711746,-0.00176880317165,0.002219247181
899.0,0.00034897024148,-0.00093093392425,-0.0018913344180850002,0.0021905248768
900.0,0.0013697891603500002,0.0033698940005000002,0.0017363277888,0.004495981825
901.0,-0.0030440917839,-0.0100800832435,-0.002304075642,0.010977193280500001
902.0,0.0010130099915299999,0.004123503232,-0.0023808960606,0.005229323924000001
903.0,-0.00072751093365,-0.00010341148949999997,-0.000856206376,0.0032626613195000003
904.0,0.000111055905115,-0.0001773486147,-0.00012226098483,0.0002471722292
905.0,0.00023387904123,6.273225765000002e-05,2.497958485e-05,0.00055462634005
906.0,0.00019206874774999999,0.00082363232905,0.0017401400257,0.0022629646087
907.0,-0.0008356805032,-0.003587328015,-0.00197139510885,0.004906681013
908.0,-0.000361210646,-0.0010231422345,-0.00065991942132,0.0019572605785
909.0,0.002637112892,0.01125807343,0.0020943302730000004,0.012717711730000001
910.0,-0.0006172612275,-0.002957555584,0.0025096501785,0.0057824658405
911.0,0.0034311172692,-0.0024620221971500002,-0.010271745899500001,0.011244061297
912.0,0.012306299711,-0.007184929661000001,-0.056956034138999995,0.06549615903
913.0,-0.0056635330755000005,-4.0346850200000025e-05,0.02076251836,0.04203728105
914.0,0.0033937002688,0.00100462241155,-0.013656381238500001,0.019030334295999998
915.0,-0.00378494233805,0.0015667224319,0.012658357899,0.0136259374145
916.0,-0.028536920805,0.010641197580000001,0.09014068474,0.095157302705
917.0,0.021942389625,-0.00765702813,-0.08030610202999999,0.08363352352
918.0,-0.0021747247050000005,-0.0002613664495,0.013141643575000007,0.1150901822
919.0,-0.0021442686879999994,0.0022116581130000004,0.004964873565,0.045238924415
920.0,0.0005349723654999999,0.0016387445446999999,-0.0022645983865,0.006396006495
921.0,-0.00100002211845,-0.00075668407315,0.0028872736249999998,0.0037239185955
922.0,-1.034041976e-06,0.0004103339378,0.001388968653,0.001448312442
923.0,-0.00037616233375,-0.00023304676525,0.00098487956435,0.00110064333205
924.0,-0.00021525650677999998,-0.001170841883,-0.0006905139365,0.001419586353
925.0,-0.0003201487572,-0.00041283277665,0.00015494537392,0.0014633397856000001
926.0,-0.0016753027082999999,0.0012456004326999999,0.0023010336822,0.0040543637534999994
927.0,0.000832744527065,0.0014902228334500002,0.003760399048,0.0045985237009999996
928.0,-0.0014092225955,-0.00130460825175,-0.00191483449385,0.0037713711815
929.0,0.00061720282585,0.0043427136925,-0.00193127175755,0.0053968349475
930.0,-0.00026464484649999995,-0.00094640893075,-0.0033304594554999997,0.0037706666899999996
931.0,-0.0006970013446000001,-0.0008383007543,0.00019714328935,0.0013723567789999998
932.0,0.0008836046005000001,0.00143648120545,-0.00326622374075,0.0038493880235
933.0,9.204971595e-05,-0.00010719702935000001,-0.00269740188785,0.002944347571
934.0,0.00019420200375,-0.00013929880314,0.0003950641144,0.00092258177705
935.0,0.0006100868934,-0.00012005162286,-0.00097585678335,0.0012325274976999999
936.0,0.0015517306495,-0.0037463161725,-0.0037900529135,0.0057739284255
937.0,-0.009645453882,-0.0034716580265,0.032073724385,0.034459801929
938.0,0.0016597087500000007,-0.00014797335949999968,-0.0038302890850000007,0.0521484487
939.0,0.0110515234855,0.010735180176000001,-0.009179610435499998,0.02657841792
940.0,0.0040254196855,0.0079258815955,0.0138735617595,0.0169868360855
941.0,-0.005397336471,-0.012763242321,-0.02513228326,0.028701691925
942.0,-0.0018151187815,0.0005041909981700001,-0.0028553772625,0.0071894200975
943.0,-0.0005561047069,-0.00098814753905,-0.00014838653245000002,0.001249413968
944.0,-0.0018250086008,-0.0039053278665,-0.0013967364084999999,0.005294073495
945.0,-0.00113633947755,-0.00216288817715,-0.003649278277,0.0050677123545
946.0,-0.00028965447790000004,-0.0008174808804000001,0.0020752597925,0.0027280237475
947.0,-0.001247082819,-0.002793419691,-0.00316069676,0.004398683113
948.0,-0.0009477273174450001,-0.00029369620565000004,6.340758399999997e-05,0.002049258917
949.0,-0.00065659318925,6.095756449999996e-05,0.0006058935473,0.001336474289
950.0,-0.00045096773815000003,-0.002039335708,-0.0013824079240000002,0.0026216812130000003
951.0,-0.00018888923535000001,0.0018394973799500001,0.00020991221490000004,0.00215716630315
952.0,-0.0003329774676,9.055097482e-05,0.00211810082975,0.0023808322905
953.0,0.0010196616344,-0.00121459553685,-0.0023795902733499998,0.003136524051
954.0,-0.00026649300589999997,-0.00043768528970000004,-0.0014779576894,0.0018447920175
955.0,-0.00073330123545,-0.0008571911031,0.00089592927171,0.0016430346740000002
956.0,0.00040751861130000004,-0.0007189715318499999,-0.0003911850257,0.001131357489
957.0,0.00043892750640000004,-0.000550093695285,-0.00046433677998,0.00115457723295
958.0,-0.0003829651978,0.00010194867279999999,0.0013706358035000003,0.0027711974119999996
959.0,-0.00148327575845,-4.0454527499999996e-05,0.0030202508525,0.003431946591
960.0,-0.000381947753,0.000835265590965,0.000236271579236,0.00111453977885
961.0,7.673189973e-05,-0.00065178137165,-0.00070069890975,0.0010477985707999999
962.0,-5.802989470000001e-05,-0.0006601415134,-0.00074904271425,0.00106479319325
963.0,-0.00064067593225,0.00111989464645,-0.0004981726697500001,0.001840570674
964.0,0.00060769732285,-0.0007736093143999999,-3.0535414800000004e-05,0.001573110399
965.0,-0.0005479105657000001,-0.00088054751385,-0.00059276686835,0.0012524469205
966.0,-0.0008950119667,0.000951385202,0.0010228338766,0.0017451534430000001
967.0,0.00018036002109999996,-0.00064892198795,-0.00033621093734999995,0.00125473982885
968.0,-0.0004959006306,-0.0019211039085,-0.00043602983964999997,0.00253804088
969.0,-0.0003689699874,0.0001066633815,-0.00118901618,0.0027418400820000003
970.0,-0.00043775821925,-0.0012716886204999999,0.0030956199715,0.00343973868
971.0,0.000255632705,-0.00060904771885,-0.0018527976295,0.001974263864
972.0,-0.000328515603795,-0.000301851699245,-0.000351115746185,0.0007614147937499999
973.0,-0.0004458986086,0.0001158586215,0.001492030467,0.001561538889
974.0,-0.000337155198,0.00017406480325000002,0.0010977599054,0.001349581276
975.0,0.0005504683107500001,-0.0010194596287499999,-0.001121714869,0.0017874664565
976.0,-0.00071878307135,-0.0007659438883,-0.0006253743412,0.00129720577015
977.0,-0.0001945097876,0.0008259175745,-0.00021880192625,0.0012870704423999998
978.0,0.0006486988450035001,0.00012882128955000002,-0.00017502960095,0.0012086532879
979.0,-0.00027221008705,-0.0022742546905,0.00030909115949999996,0.0023839605235000004
980.0,-0.00035661587709999996,-0.00105199509505,-0.00078768985045,0.0013855421009500001
981.0,-0.00044715991385,0.0007399224183,0.001282636973,0.001638723851
982.0,0.0006345983175,-0.0010621995325,-0.0009407998455000001,0.0016739383885
983.0,-0.0003374927385,-0.00084358548725,-0.0013312034777500001,0.001722735223
984.0,-0.00031395288475,0.0004322056592,0.0009694743089,0.0011889283833
985.0,0.00015714156951,0.000258861784,0.0008089373333500001,0.002029941643
986.0,0.00042237670105,-0.0012218161365,-0.0009750969705,0.0016469121675
987.0,-0.00054702434835,-0.00033109179955,-0.0002496300046,0.00094064537345
988.0,-1.686907774999999e-05,0.00078624839135,0.00025269885175000005,0.00096623621455
989.0,0.00027371930214999997,-0.0012358061593,-0.0007102433339500001,0.0014775917754
990.0,-0.00016292564655000002,-0.00090415860695,-0.00083589999865,0.0013828265801
991.0,-0.00071973730047,0.00023934558750000003,0.00117687082275,0.00169689763
992.0,0.00054673432595,-0.00031963731481,-7.731485735000001e-05,0.00133571002215
993.0,-0.000388627826225,-0.0016130692455,-0.00119454013965,0.002155498737
994.0,-0.00066431447425,0.00079518527855,0.0011196826177,0.00154821408135
995.0,7.099986495e-05,-0.0002543692910000001,0.0003447384165,0.0019107956984999999
996.0,5.416719554999998e-05,-0.0015598195260000001,-0.00126590700045,0.0020749984805000002
997.0,-0.0004712195186,0.00054488291815,0.001145158542955,0.00150169639955
998.0,0.0003150211665,0.0002742213215,0.0007400062556,0.0008497322678
999.0,0.00034514831504999996,-0.00054707922105,0.00122404968875,0.002309689159
1000.0,-0.0003195930861,-0.00051115255815,-0.00069307900885,0.00135040646535
1001.0,-0.00023862635300000003,0.0005011570515399999,0.0007191263689499999,0.0017282821075
1002.0,0.00040088566794999997,-0.0009656950817,-0.000792359803035,0.00144561544295
1003.0,-0.00023014349955,-0.00159706020805,-0.0008544474568,0.002089491808
1004.0,-0.0007012829723,3.142430735e-06,0.00041015660985,0.000837521365
1005.0,5.9913973994999997e-05,-0.00082901090055,-9.546983145e-05,0.00090514551305
1006.0,-0.00037558530184999997,-0.00137766185415,-0.00107582204945,0.0017897111200000002
1007.0,-0.00044908270915,-7.431616325e-05,-0.00067809671775,0.0014360041400000001
1008.0,0.00109423048275,0.0023927377224999997,0.0005819784505000001,0.0027864601975
1009.0,0.005710300414,0.00023103173254999997,0.0105880817695,0.012241895190000001
1010.0,-0.0041299549265,0.0034953297000000004,0.0030715574815,0.010357770949
1011.0,-0.0014278424,-0.0008229737734999999,-0.00524084729,0.025911024074999997
1012.0,0.0046195766445,0.0005594260816,-0.008717274453,0.009980015673
1013.0,-0.00110734700145,-0.002261717723,-0.0036288913585,0.007303131192
1014.0,-0.00104369458445,0.00036167173315000006,0.0014587723963,0.0021777927685
1015.0,0.000619966310615,-0.000818363375782,0.0009314691234999999,0.002947098689
1016.0,-0.00024325090605,-0.00079990365065,-0.00258912645515,0.0027793333925
1017.0,-0.0007538728247,0.00043017573554,0.000740506209,0.0028980295164999998
1018.0,0.0009584335573999999,-0.0014184605848999998,-0.0021694049755,0.0043764526435
1019.0,7.574247909999997e-05,-0.0038054832955,0.0009734811004500001,0.004033275505500001
1020.0,-0.00034272305510000005,0.0034346110850000003,-0.0016967126982,0.0056035581525
1021.0,0.0001798998404,-0.00108152414755,0.0005713342666,0.002075533571
1022.0,-0.00058636110385,0.0003374861977,-0.00011375654000000002,0.002173480676
1023.0,0.0012532374091,0.0010618868079,-0.0022391673455,0.0040539206549999995
1024.0,0.003354491479,0.005914305821,-0.02516438038,0.0260667924
1025.0,0.002331843718,-0.0025810593145,0.0001339153750000003,0.00606183494
1026.0,-0.00051652742365,0.0025622138485,0.005807659285000001,0.0063744674250000005
1027.0,-0.00067361185375,-0.0026965399415,-0.00074065630025,0.0030911251239999996
1028.0,-0.00254112932,-0.0027772413189999998,0.0005622264130000001,0.004156781336
1029.0,-0.0023249279016500004,-0.0006232634782,0.006397398701,0.0069833584695
1030.0,0.0004464140089,-0.00111203389375,-0.00258950817685,0.0031202528905
1031.0,0.0018815683892,-0.00110134788275,-0.007501676673,0.0079884851485
1032.0,-0.00069512492815,0.0014934463324,0.0033229380005,0.0039512991555
1033.0,-0.00010990896309999996,-0.0013688937888,0.001508246443,0.0031345768805
1034.0,-0.0009318471353,-0.0010414883225499999,0.00015765442900000004,0.0020238248875
1035.0,-0.00059290297385,0.00042007715815,0.0022665687575000003,0.0026104121995
1036.0,0.00029417315690000005,-0.001724193998,-0.002346374414,0.003027627907
1037.0,-0.0005028921193,-0.00090949022435,0.0009046386720000001,0.00286147719
1038.0,0.0005423562447500001,-0.00025585537750000005,0.000989950529,0.003706579575
1039.0,-0.001378236656,-0.0010990677037,-0.0035326834425,0.0041459714705
1040.0,-0.0061983920789,-0.008655783726999999,0.0085235049775,0.015093731705
1041.0,-0.0019316522950000008,-0.0018965213004999994,0.00957843932,0.059836819570000005
1042.0,0.003637655622,0.0062461662205,-0.008932794669,0.016519138461
1043.0,-0.0011946867633499999,-0.00056974485755,0.0015955475025,0.0037414862215000002
1044.0,0.000625074453,-0.002399238567,-0.0019350657559,0.0036424168265
1045.0,0.0002905068844999999,-0.0012437007893,-0.00494982674905,0.0065112777155
1046.0,-0.0013795681455,-0.0011458815045999999,0.0008877642733500001,0.0021084602440000003
1047.0,-0.00169177304285,-0.0002508480856,0.0021477763645,0.0029882699345
1048.0,-0.004738243646,-0.005757533589,0.015518699065,0.01746050662
1049.0,-0.007832259031,-0.002143901685,0.03435366195,0.035437129125
1050.0,0.00919329911,-0.0003376926533,-0.03495389714,0.03614423481
1051.0,-0.0002436524864,0.0003234378916,0.00023589138734999998,0.00076107231725
1052.0,0.00034234612990000004,-0.0007196686174499999,-0.0021428100069999997,0.002977009256
1053.0,-0.0007433977491500001,-0.0008260098824999999,-0.0011720845646499998,0.0016238678318
1054.0,-0.00010103244304999999,0.0015050926973500002,0.001344831526,0.0023914781000000003
1055.0,-0.00012321227835,-0.0005994103175500001,-0.0003095259295,0.0013204184625
1056.0,-0.00041215560018,-0.001859732697,-0.0013044522459,0.002339930267
1057.0,-9.181220099999999e-05,0.00150711681384,0.0011400056629999999,0.002862311056
1058.0,1.6199639450000002e-05,-0.001124897674845,0.0007955324084999999,0.0019259102525
1059.0,-0.0002662266865,-0.0020815547915,-0.0010454938496,0.0024229126725
1060.0,-0.000552456935545,0.002854060222,0.00322346851325,0.0045309098305
1061.0,0.00023160731950000002,-0.00075014786885,-0.0004276973175,0.002130773721
1062.0,-0.0002884426104,-0.0009028990447499999,-0.000310787616055,0.00106780133285
1063.0,3.69473500000004e-06,0.0018913638604999999,0.00135245742315,0.0027355444835
1064.0,-0.00028149012760000003,-0.0028721745095000003,0.00061299911855,0.0029970766920000003
1065.0,0.00021480476509999998,-0.00043889467495,-0.00065639889665,0.0016076447475
1066.0,-0.00039950910705000004,0.00127253836425,0.000290585538,0.00162046601335
1067.0,-8.954782950000009e-06,-0.0019384206015000001,-0.001413260774,0.002436487268
1068.0,-0.00022223980769999998,0.00025075606400000005,0.00020478908475000008,0.0020777414005
1069.0,-0.0008630110202,0.0034938887325000004,0.0017536588005,0.0040084822635
1070.0,0.0004381516915,-0.0006167754398499999,0.00046629134755000004,0.0011569972797
1071.0,0.00386908297965,-0.00079190927465,-0.0121427697795,0.0128915493095
1072.0,-6.875072325000003e-05,-0.0007637263109500001,0.00039393409115,0.001604559938
1073.0,-0.00109271843705,0.00169764998305,0.0036141776030000003,0.0045052583455
1074.0,0.000458194305855,-0.0012596057153999999,-0.00044986499495,0.0016235803605
1075.0,-0.0004545250615,-0.00202426964,-0.0009547266287,0.00228380462
1076.0,-0.00072322046285,7.829680199999999e-05,0.0017702912583,0.0031545803625
1077.0,0.0013747305369,0.0009384986535999999,-0.0016045105194999998,0.004571566539
1078.0,-0.000360481537,-0.002303143749,-0.00128295242435,0.0037876038745
1079.0,-0.00044726464195,0.00115504564925,0.0014039630881,0.0019332123614499998
1080.0,-0.0001877989602,-4.6657625449999976e-05,0.00156867353,0.0018311080855
1081.0,-0.00016236109154999998,-0.001776120645,-0.0021359874645,0.00297562098
1082.0,-0.000189289016945,0.0002161746149999999,0.00051707564875,0.002210020362
1083.0,4.4039464300000034e-05,-0.0009002667796800001,-0.00130164981165,0.0023890669309999998
1084.0,0.0002312490639,-0.0014865688031500002,-0.0010466410973000002,0.002272404675
1085.0,0.00210039497685,0.00066322969805,-0.0064724788945,0.006888414018
1086.0,0.00032186505650000005,0.002846722471716,0.0026710508710000003,0.0074130554195
1087.0,-0.00073140520625,-0.002113277516,0.0012992469219999998,0.004653902404
1088.0,-0.0009675648603,-0.0005266937785000001,0.00053110818915,0.00248488419
1089.0,0.00033817307420000003,0.00104947884879,-0.0001490161590000001,0.0029473797780000003
1090.0,-0.00037691201880000005,-0.0020298565435000002,0.00028641089845,0.002322247685
1091.0,-0.00019354483925,0.00030123529699999996,0.0023442447488,0.0028928451275
1092.0,0.00036767335845000004,0.0007185831441500001,-0.00106764217285,0.001925036554
1093.0,0.00126613203595,-0.0013682158007,-0.0039442610735,0.009089868245
1094.0,0.0004188001233,0.0007662934197,0.0001952357035,0.0022216433654999998
1095.0,0.00076726572495,0.0004867129595,-0.00046330116545,0.0021339590360000002
1096.0,-0.0009472336914,-0.0029638953115,-0.00015642798011,0.0031471121374999998
1097.0,-0.00022904033670000004,0.00148479390525,0.0025717255674999996,0.003964939427
1098.0,-0.00040108722625,-0.00030466822080000005,-0.00026385044900000004,0.0017096329215
1099.0,0.00052374860005,-0.001803023944,-0.0025691878664,0.004383508779
1100.0,-0.00053085632355,0.00145738075065,0.0029189818580000002,0.00367984993
1101.0,6.452483563e-05,5.880370736e-06,0.0004830118223,0.0004873381307
1102.0,8.099137199999996e-06,-0.002106196294,-0.0017379617785,0.0027954639875
1103.0,0.00023282761227,-4.972979499999995e-05,2.8988462999999967e-05,0.0021908666724999998
1104.0,0.0007401761603499999,0.0010564461243999998,-0.00039102309884999996,0.002211647155
1105.0,-0.00064750552385,-0.0022965770835,-0.0002625407605,0.0024608326955
1106.0,0.0005825239520999999,-0.0019955672711000003,0.00211397704067,0.0033395252283999997
1107.0,-0.0005545889544000001,0.0027684833553500003,-0.003097495315,0.004771809471500001
1108.0,-0.00065277573225,-0.001811383824,-0.0023343642219,0.003517983811
1109.0,-0.00035683240505,-0.0006095269266000001,-0.000506561167,0.0036678601149999998
1110.0,0.00105219680195,0.0022567517930000003,-0.001352401386,0.0049469273975
1111.0,0.000677471350355,-0.00032230730685000003,-0.0018843577684999999,0.003838744899
1112.0,0.000650202054,-0.00100186131485,-0.0048613105704999994,0.012385484942000001
1113.0,-0.00030919559315,0.0023048472460000004,0.003353733752,0.004111143782999999
1114.0,0.0004022243871205,-0.00109712955835,-0.002674652574,0.0034017296010000002
1115.0,-0.0006321907070500001,-0.00109779495325,2.2652919600000003e-05,0.001734295867
1116.0,-0.0004055721174,0.002194619225,0.003255995632,0.0039817830165
1117.0,0.00099504546148,0.0002745558465,-0.0029218167035,0.0033216411865
1118.0,-0.0009561600530000001,-0.0025461414945,-0.0021032793605,0.0040595705355
1119.0,0.0003890335038,0.0020089124456,-0.00100079581905,0.0025385732760000003
1120.0,0.00108748559825,0.0027549742509999997,-0.0011823604238,0.0032607244744999996
1121.0,0.0034170011100000002,0.005629194503499999,-0.0030706203470000004,0.007881842620499999
1122.0,-0.0010901938065,-0.00130640665935,-0.000645441921,0.002817517207
1123.0,-0.0004180865888,0.00181663741225,0.002052093249,0.003098555783
1124.0,-0.00430669295635,0.0004975796395000001,0.04550593353,0.0459147524395
1125.0,0.0078240752965,-0.004476356636,-0.05748006103,0.058209598735
1126.0,-0.04059426202,0.01130224099,0.1672791954,0.172504968
1127.0,0.020140049305,-5.332068250000002e-05,-0.07763583308,0.170613116395
1128.0,-0.07658140755500001,0.007722357889500001,0.37511357825,0.38295683464999997
1129.0,-0.048685685435,0.05730649891,0.21782649025,0.23219840460000002
1130.0,0.044075737255,-0.009028313599999999,-0.07114548669000001,0.09481872432999999
1131.0,0.025830207788999998,-0.01469004577,-0.15302150375,0.1678125308
1132.0,-0.0025831534340000004,-0.031735662275,-0.0438978839865,0.062785450795
1133.0,0.004439814594999999,0.07991276277499999,-0.024458202835,0.090302321095
1134.0,0.03423979265,-0.019639175445,-0.03586370283,0.067553985265
1135.0,0.06481463804000001,-0.01736314109,-0.27952046262,0.2948803656
1136.0,-0.029549383454999998,0.023654917271999996,0.047645586755000004,0.07739497294
1137.0,-0.012373843894,0.00238810944615,0.04036911379,0.042883542275000006
1138.0,-0.005927987939,-0.042611039200000006,-0.0014691526999999968,0.186048572
1139.0,0.03155289647,0.038196128515000004,0.0028464467750000007,0.069345715405
1140.0,-0.023529811124999998,-0.07196896018,-0.0017255353150000003,0.080048626185
1141.0,0.01202527325425,-0.02081505740825,-0.093817481535,0.099827620465
1142.0,-0.00849823722,0.021063286215000004,0.023968183625000004,0.11626795065000001
1143.0,-0.0056717665345,-0.006655768639,-0.034412191165,0.035860906325
1144.0,-0.000679086152,0.0008512851004999999,-0.003313405965,0.017314670575
1145.0,-0.00013535201105000001,-0.00133936184765,-0.0034163980355,0.003702895724
1146.0,-0.000335169832825,-0.0051092387315,-0.0008424254840000001,0.0058650020885
1147.0,-0.00139078156175,0.00018218980494999997,0.00471902603085,0.005261878324
1148.0,-0.00014927645450000008,-0.0009010119828,-0.00164022723305,0.002453949854
1149.0,0.0005009417518,-0.00040693343345,-0.00074734042775,0.0012564177679
1150.0,9.576306105000003e-05,-0.00019496373660000003,-0.0008439446350000001,0.0014950799765
1151.0,-0.0005678037435500001,4.5165055475e-05,-0.0002994057128999999,0.0015310492925
1152.0,0.0005441462968,-0.001350011683,-0.0008538941643,0.001687531328
1153.0,-5.778041899999996e-05,0.0036128943595000003,0.00239936206195,0.0046473363795
1154.0,0.0003625516589999999,0.0005458949919999999,-0.00238235358265,0.0035737413054999995
1155.0,0.000337139249075,-0.001506202836,-0.0023430391629999997,0.0028368574935000003
1156.0,-0.0005119685312,-0.0015765586653,-0.000319855936,0.0023204202315
1157.0,-0.00039648352989999996,0.0002245934048,0.00098198843105,0.0016292741993000001
1158.0,0.00023556251410000002,0.0006512749572499999,0.00029592240895,0.0012549295115
1159.0,0.0004964542583499999,-0.0007326854713999999,-0.0011439306121,0.0018785818900000002
1160.0,-0.00023087034888999997,-0.0016470413081,0.0012537591277999999,0.0023666534165
1161.0,-0.00035501214875,0.0007932754893,0.00029060370549999995,0.0014350022560000002
1162.0,-1.403560199999995e-06,0.0009712563571,7.069457149999999e-05,0.0019676141050000004
1163.0,0.00010277646109999999,-0.001431817692,-0.00050573942355,0.0017009264420000001
1164.0,-0.00046844688469999997,-0.001334335616,-0.0009131441371,0.001816045663
1165.0,-0.000154275367,0.00033569224635,0.00039902109625,0.0018113296150000001
1166.0,-0.0031819923045,-0.004097412299,-0.00043088443320000005,0.0053963453625
1167.0,0.0018496837547499999,0.00055104889,-0.0011883439637000001,0.0036122751845
1168.0,-0.0014590472830000002,-0.00237548750075,-0.0006864873085,0.005372612284
1169.0,0.0035060381094999997,0.0010597974485,-0.0061774347499999995,0.007735038431000001
1170.0,-0.0017117245015,5.230669150000001e-05,0.002719429374,0.0033052430215
1171.0,-0.0008778060610999999,-0.0011120553458999999,0.002924759943,0.003561476209
1172.0,-0.0013095600618999999,-0.0015728840165000002,0.0054368770944999995,0.0058654191185
1173.0,-1.9723921550000007e-05,0.0010182372038,0.00120009956005,0.00159075308695
1174.0,-0.00018428506410000004,-0.00042842411183,0.00042024949639999997,0.00092589854805
1175.0,-0.00024464188655,-0.0020646829795,-0.0009421762489000001,0.0023154019159999997
1176.0,2.5760215750000003e-05,-0.0006994972069,-0.00089031989285,0.0011601497103
1177.0,-0.000760181565,0.0008205003333,0.0001763066861,0.001132334251
1178.0,-7.42845826e-05,0.00057817467585,0.0018190628909999999,0.0022767720225
1179.0,0.00021467580665000002,-0.001995959044,-0.001287255151,0.0024586683409999997
1180.0,-0.00052062152685,-0.0011440189462,-0.0005961851623,0.0014126022945000001
1181.0,-0.00084893468215,0.0006745768512,0.001418782439,0.001900644574
1182.0,0.00018505372710000002,-0.000283073387374,0.000840241477545,0.001257990523
1183.0,-0.00113280144905,-0.00103823809925,0.00410981463275,0.005290802971
1184.0,-0.00042600898899999997,-0.0034037418275,0.005944645495,0.0070863298165
1185.0,-0.00024576024975,0.002448006654,-0.0018146045838,0.0033914850520000003
1186.0,-0.0002919580655,-0.0012937116302,0.0012814971715000001,0.0022423419995
1187.0,-0.000229944559435,-0.0007246465754,-0.0002900742943,0.0012793775476999999
1188.0,0.0004372449053,0.00273023592525,-0.003520786139,0.0048901680195
1189.0,-0.00031755932665,0.0076936927789,0.0052511831546,0.012676193155000001
1190.0,-0.0017087500605000002,0.0018030810226999999,0.005051682137,0.0062082620614999995
1191.0,-0.0015487490317000001,-0.0012440477901,0.0040876697155,0.005196464157
1192.0,-0.00023267610573,-0.00139483345315,-0.0005699525766,0.0023561129389999998
1193.0,-0.0006210740004999999,0.00145219570375,0.0033980636865,0.0039938564085
1194.0,2.573070799999995e-06,-0.00031791397765,0.00021042051169999993,0.001397075275
1195.0,-0.00077780828965,-0.0036523019585,0.002480066249,0.0045301741455
1196.0,0.00052969172305,0.0015985168194999999,0.0019303621980000002,0.00533240842
1197.0,-0.00226061806,-1.2680494500000024e-05,0.003424825891,0.0044468871020000005
1198.0,6.064220429999999e-05,-0.000953984978854,0.0008797419359999999,0.00163058619975
1199.0,-0.00048209200652,-0.002241899929,0.00212211233285,0.0035322474085
1200.0,0.0016921669835,0.0017296271192500001,0.008425231833,0.0092223326445
1201.0,-0.003429092563,0.0026648913780000006,0.009797015303000001,0.019116669235
1202.0,-0.0022569688986499997,-0.00551515239,-0.0016721147750000005,0.015704309215
1203.0,0.005587635078,0.004911174993,0.004121115943,0.00850440487
1204.0,-0.0001461061503,-0.0004462494627,-0.00157968426,0.0016702460275
1205.0,0.000882277747,0.0023439165855,0.00682637051555,0.008885896623499999
1206.0,-0.0027757703905,0.0026578118355000003,0.00797098934508,0.009956953278
1207.0,-0.0020385134884999996,0.00246263103315,-0.00126836295535,0.0050742134685
1208.0,-0.00035305726615,-0.0014902174851,-0.0049019268525,0.005304998051
1209.0,0.0005849399056,-0.001192484272,-0.003438508026,0.0038049957525
1210.0,0.0002289906774,0.00048666430050000003,-0.000565400559295,0.0020448334084999997
1211.0,1.3451368100000016e-05,-0.00100665692455,-0.0007965144102,0.0020608983045
1212.0,-6.872840344999997e-05,-0.00114120604055,-0.0018771324765,0.0054539748915
1213.0,0.000599174004485,0.0015620750355,-0.0032860974770000002,0.0037307666625
1214.0,-0.00018749380135,-0.0005537068115000001,0.0009905262416,0.0019957811695000003
1215.0,-0.00032289043145,-4.8076370999999986e-05,0.0002064921815000001,0.00255546317
1216.0,-3.059672455e-05,0.00200282896,0.0009761326832,0.0022987634085
1217.0,0.0002576276208,-0.0014172874059999998,-0.0010350400594,0.0019611196225
1218.0,0.0012706140464499999,0.00033927618919999997,-0.005401825626000001,0.0057814952985
1219.0,0.0015546294277,0.0019754981795,-0.0007623933443999999,0.003274369099
1220.0,-0.00028666826284999997,-0.0006180266879,-0.0006129221109999999,0.0028262694755
1221.0,-0.0009101477827,-0.0004133925873,-0.00011236391795000004,0.001609473035
1222.0,-0.0009167224201,0.0021479226245,0.0016232210979,0.0035871815185
1223.0,-0.00030038388465,-0.00096340667048,0.00042043311054999993,0.0019447931445
1224.0,0.0014913323034,-0.0010796907395500001,-0.00572688930295,0.006787056957000001
1225.0,-0.00078886001635,0.00033612152900000004,0.0013204430840999999,0.0022269673095
1226.0,-3.0803396005e-05,-0.0005911095376,-0.00011732952009999996,0.0012404584425
1227.0,-0.00047590794935,-0.0007388970253500001,-0.0020842494823,0.0027241039870000002
1228.0,0.0008010413114,-7.716932005e-05,-0.0005305284342,0.000963889364
1229.0,-9.944829085000001e-05,0.0005105583058000001,0.0012028311225,0.0019847964835
1230.0,-0.0003874532527,-0.0007775188277,-0.0014316130033999999,0.0023713382845
1231.0,-0.0010118477214,0.000933968177,0.0008803789857999999,0.002957572763
1232.0,-0.00034027423611,0.00032817982895,0.0017407669815,0.0018466717775
1233.0,1.5341622000000003e-05,-0.0016374334386500002,-0.0001060525138,0.0016562814135000002
1234.0,-0.0006152451695500001,-0.00095330890835,0.0007931790431,0.0014441833664000001
1235.0,-0.00091489954545,0.0002953241974,0.0008321077991999999,0.0013686876010000001
1236.0,0.000520113433455,0.00056496648295,-0.00058894011845,0.001420055381
1237.0,-0.000238088304255,-0.0007495018219499999,-0.0006784266088,0.00112474642775
1238.0,0.00013671297234999998,0.00102485162125,1.5062690849999968e-05,0.001604120259
1239.0,-6.899237859999999e-05,0.0005675948672,0.00018245159354977,0.00081017072195
1240.0,0.00018570549995,-0.00026372232015,-0.00047485796515000004,0.001433523173
1241.0,-0.0005653146428499999,0.0009379149288,0.00013017700305000001,0.001285599092
1242.0,0.00016502703215,0.000771204820935,0.00035676637699999996,0.001781270663
1243.0,4.4597057150000003e-05,-0.0012871213715,-0.000281664620465,0.00132880385
1244.0,-0.0004927361105500001,0.00034412072045,-0.00042524063000000005,0.0013513022745
1245.0,-0.00044411892635,0.0010378834205000001,0.0011845605755999998,0.001951641875
1246.0,0.00068273780625,-0.00076203608414,-0.00045770897484999996,0.0022549425505
1247.0,-0.00053530127075,0.00295852851025,-0.0031478963835000003,0.005164226516000001
1248.0,0.0086531768935,0.003569488247,-0.012755408707,0.019137582059999998
1249.0,-0.00012461483184999998,-0.0032864285785999996,0.0005969581920000002,0.0055140702909999995
1250.0,-9.831652849999999e-05,-0.0022912843505,-0.00022693045735000007,0.002669532874
1251.0,-0.0015961256255,0.000450834567,0.002437170581,0.0035346082499999997
1252.0,0.0018879762422500002,0.00104425506375,-0.005527516336,0.0060341159995
1253.0,0.0025398627825,-0.00088748707345,-0.00679235842,0.0076798252375
1254.0,-0.005222043283,-0.004865336054,0.01201837267,0.01397792948
1255.0,-0.0035257615724999997,0.0024417333635,0.0065837828545,0.007868769959
1256.0,4.3234452349999987e-05,0.00054197913545,0.0020577900553,0.0021545936114
1257.0,0.00038827814655000004,-0.00140881321,-0.00089881984375,0.001720519829
1258.0,-0.0001522073769,9.244279800000002e-05,0.00026289520640000003,0.0004020394559
1259.0,-0.00031004085974999996,0.00049946424965,0.00200972387195,0.0023527768694999998
1260.0,0.00022621312424999998,-1.1734931550000014e-05,-0.00090012052705,0.0011214468772
1261.0,-4.29829861e-05,-0.0008365822986,-0.0013014025999999999,0.0018653164049999998
1262.0,-8.825339175e-05,0.00099839235755,0.0008623084284500001,0.001472761333
1263.0,0.0007811477682,7.167168180000001e-05,-6.396063450000002e-05,0.0020469580940000003
1264.0,6.42727005e-05,-0.00061460518675,-0.001551152522,0.002284297575
1265.0,-0.002047023729,0.00078034906453,0.00467461673125,0.0060609882965000006
1266.0,0.00012944355904999995,-0.00099058544205,-0.0011205540528500002,0.0022982941655
1267.0,0.00142176116245,0.0018333980219999999,-0.00290893150435,0.005641770442
1268.0,-0.00033712537055,0.00050292798655,-0.00087010647255,0.0015372497215
1269.0,6.28034388e-05,0.00075766468745,0.0008035036941999999,0.0015919824241
1270.0,0.0029548636145,-0.002021877807,-0.00414915345215,0.0056743371155
1271.0,-0.00037428413235,-0.0003606298032,4.9849166349999995e-05,0.0010337731321
1272.0,0.00113193877935,0.0020860486705,-0.0007530790754999997,0.004395028353
1273.0,0.00083270507595,-0.00119646659415,-0.002829880435,0.0033179805345
1274.0,-0.000142385238135,0.00029450739,0.00013282253874999996,0.0018163561845000002
1275.0,0.00020553582285,0.0009998078126,0.00214248215895,0.0027761212505
1276.0,0.00012420014679999998,-0.0019997052025,-0.00139217966175,0.0026196722630000002
1277.0,-0.00017254054545000002,-5.632590540000001e-05,0.00106480030815,0.00120461231115
1278.0,-0.000142802180735,0.0016671595079,0.0009300181205,0.0025172733919999997
1279.0,-0.0002923830796,-0.001222698589,-0.001511209475,0.001965765444
1280.0,-0.00021283166694,-0.00109406587495,8.5857989e-06,0.0012058485122000001
1281.0,0.00101907425725,0.004058937186,-0.00350071089635,0.005526173358499999
1282.0,-0.00012133875174549999,-0.0021753347379999998,0.0027796430055000002,0.004090028807
1283.0,-0.00025730637840000003,3.4466914000000066e-05,-0.00063273623145,0.0023420335525
1284.0,2.646206778e-05,0.0014900816328500001,0.0021456629725,0.002722154767
1285.0,-0.0012742237408999999,-0.00086695588685,0.00047141977346950003,0.0017510152435
1286.0,-7.900853605e-05,-0.0012967181001999999,-0.00120291708255,0.0020902403960500002
1287.0,0.0006785499795000001,0.0017372365795000001,0.0001552040488,0.0020121092425
1288.0,0.000323438647135,-0.001000632363,-0.00021102610408499999,0.001160119983
1289.0,0.0015506425634999998,-0.000953267453,-0.001076849613,0.008879175451
1290.0,-0.00083822296135,0.00011548578655,0.0017708138305499999,0.0021909991345
1291.0,-8.877287575000001e-05,-0.0012475994080499999,-0.0014034184425,0.0019437664795
1292.0,0.0016457024142,0.0009804569533,-0.0057753446509000005,0.006793051279
1293.0,-0.00025301139955,0.0001526028274999999,0.0027231573442,0.0045965350295
1294.0,-0.00017196518424999997,-0.0008939323939150001,-0.0009366301133,0.0022232010305
1295.0,0.0004106275235000001,0.0014860539324,0.00045584308615,0.002316993283
1296.0,0.00021942631640000005,-0.0002005640851,-0.000587923594,0.0025110347914999998
1297.0,-0.00040022444265,-0.00117643420045,0.00024064154565,0.00131894874355
1298.0,0.0001320532071,0.00141058871775,0.001632116347,0.0024054128065
1299.0,0.0004698839404,-0.0020289924929,0.0011853520305,0.003458772032
1300.0,-0.00114082253775,0.00013609526125,0.00390247165875,0.00444098699025
1301.0,0.000263774021095,0.0017824182219,0.00011586084934999996,0.001977449134
1302.0,0.00061131044116,-0.00097491222945,-0.00122098445975,0.0018379105645
1303.0,-3.944710584999999e-05,-0.00027245643334999995,-0.00132263499065,0.001705284275
1304.0,0.0005854295804,0.0016416022825,0.0006566666153,0.0024167895769999998
1305.0,8.624049324e-05,-0.0008080781337,0.003571328757,0.003662624303
1306.0,0.00051754512645,-0.0013851917785000002,-0.003339227385,0.0036975333955
1307.0,0.00022490726164499998,0.0010115696603,-0.0022439229225,0.0026800776819999998
1308.0,-7.979216864999997e-05,0.00045832601149999996,0.00020424559664999995,0.0025066866855
1309.0,-0.0002604479326,-0.001225166785,-0.0022473490965,0.002635166932
1310.0,-0.000330840801275,0.00125197783855,0.0012362704785,0.0023640236595
1311.0,0.00039095843355,-0.0002012718434605,-0.0007212637313,0.0009301806746999999
1312.0,-6.285484187e-05,-0.00142623759175,-0.00153507053265,0.002109752862
1313.0,0.00011613387065,0.0013653653085500001,-0.00194227144,0.0026581963215
1314.0,0.0002855420565,0.0006181586445,0.00128590419207,0.0018016577736499999
1315.0,-0.00017075323243,-0.0007059010060000001,-0.0010805878215,0.0015741419515000001
1316.0,0.00016431615450000002,0.000471587233485,7.082833265000004e-05,0.001096936195
1317.0,0.0007604445016,0.0009015510431500001,0.0007866396657999999,0.002175538215
1318.0,-0.000152853477345,-0.00072735704605,-0.00082179200715,0.0015786840129999999
1319.0,-0.00027633810365,9.619052451e-05,-0.00026734518869999996,0.00104016498235
1320.0,-0.00038098985120499997,3.460016899999995e-05,-0.00022497389649999994,0.0032922161605
1321.0,-0.00039348725550000005,0.0001481937919999999,0.0023953742715,0.006326705657
1322.0,-0.00366843175175,0.010268023115,0.010849408253,0.016220425915
1323.0,0.0015540132805,-0.0035145247535,-0.006398749035499999,0.0097681081405
1324.0,0.00193428624365,-0.00099381586005,-0.008435533585,0.008819658244
1325.0,-1.0852873200000002e-05,0.0025265313819,0.00118296869865,0.0045110708565
1326.0,-0.00083871698915,-0.002675107444,0.0024951535765,0.003980761925
1327.0,0.00032360856330000004,-0.0014513109389,-0.000250335828435,0.0015411388124000002
1328.0,4.62442996945e-05,-0.001231444816,0.001160793454,0.0016970766374999999
1329.0,0.00038417150005000004,-0.0005188725019100001,-0.0012767255171549999,0.0021183371705
1330.0,9.861530044999999e-05,0.00029500863995,-0.0006518959107,0.0012357140823
1331.0,-0.0001149259316,0.001464099406,0.001487778943,0.002090521759
1332.0,0.00010325986315000001,5.28320351e-05,-0.0002692454819999999,0.0015127319895
1333.0,6.5435055065e-05,-0.0005542503033,-0.0012200488684500001,0.0014234579009999998
1334.0,-0.0004726454853,0.00029541433941,0.00016711537229999998,0.00100458004465
1335.0,-1.3735889500000013e-05,-9.671988874999997e-05,0.00018390457104999996,0.0014983761325000002
1336.0,7.935258699999991e-06,-0.00082249311025,-0.000201308341975,0.0012530484565
1337.0,-0.00044765179350000006,0.0003280177491,0.00010661702765,0.0018401452805
1338.0,0.000701224929,0.00034958394994999995,0.0004974562862,0.001711353895
1339.0,0.00036470157404999996,-0.0015618176059999998,-9.621861919999994e-05,0.0020499217145
1340.0,-0.0009708981707999999,0.00031999251394999997,0.0034246528499999995,0.0055567728714999995
1341.0,-0.013365947315,0.0026868698165,0.06232370524,0.063807300105
1342.0,0.019982156062,-0.001228148986,-0.0812384328,0.08367819651
1343.0,0.0015400533800000015,0.0002739221720000001,-0.005258924379999995,0.10675826685
1344.0,-0.054436121355000006,0.01976295715,0.2696087939,0.27581985675
1345.0,-0.08725827523,0.0187545032,0.3938802377,0.40389100525
1346.0,-0.0216878297145,-0.020829180145,0.012084917695000003,0.074886864535
1347.0,0.002364185215,0.019237840994999998,-0.43874331454,0.470069673855
1348.0,0.7333842513000001,-0.18721713680000002,0.27375644445,1.11975249915
1349.0,-0.128528119745,-0.092737632,-0.27475972155,0.3265535649
1350.0,-0.06878880683449999,-0.1490469578,-0.23002340045,0.28990810170000003
1351.0,0.05271568515000001,4.24529999999701e-06,-0.15769506709,0.2974250204
1352.0,0.003659758525000001,-0.096857404955,-0.12677809501,0.20027774885000002
1353.0,-0.01828914666,0.14678156294,0.17350247915,0.228029285
1354.0,-0.059883956700000004,0.21416429995,0.30239028935,0.3758178982
1355.0,-0.066696832685,0.10631057778,0.15454941805,0.2107735604
1356.0,-0.004192692584,-0.2511629621,-0.351278521,0.4318529976
1357.0,0.25452424500000004,-0.44068959485000003,-0.7089006631,0.9586024882999999
1358.0,-0.5064181248,-0.0238556848,0.168878944355,0.5692442635
1359.0,0.07886630689999999,0.054314100000000004,0.34242702735,0.70605857985
1360.0,-0.1829840152,0.34139567390000003,-0.0043888513100000005,0.40312488725000006
1361.0,0.07541027235,0.23029046665000003,-0.07217643245250001,0.287848955
1362.0,-0.10632470200500001,-0.31976962057839997,0.031547090185,0.395926771215
1363.0,-0.009071210454,2.2223874999999574e-05,0.048988119991,0.059569308774999996
1364.0,-0.0009952017849999984,-0.00704509656625,0.026600597041999997,0.04652753267
1365.0,0.005980431881,0.008296110773,-0.061226054465,0.0645601227
1366.0,-0.004962971154999999,-0.006962004777,-0.06149044961,0.068714620635
1367.0,-0.0194751520325,-0.004899508645,0.038995141695,0.04905577791
1368.0,0.015341069035500001,0.000281901722,-0.011325338745,0.045958396459999995
1369.0,-0.0008120598959999998,-0.0040393369043499995,0.009188747135,0.028216876199999998
1370.0,0.0003048899015000001,-0.0061851885375,-2.824697000000046e-06,0.0069387441405
1371.0,0.002246956941,-0.0021254390265,-0.001626937084,0.0035043096174999996
1372.0,-0.0003057112459,0.0040412465665,0.0008608779491,0.0043409087625
1373.0,0.0007755846907,0.00027171032295,-0.00150308747075,0.0019217198225
1374.0,0.00077419809075,-0.00074056915208,7.401027845000001e-05,0.0013635267515000001
1375.0,0.0006921021404499999,-0.0022014459415,-0.001714305062,0.0029159443050000003
1376.0,0.00118882500115,-0.0015691428014499998,-0.00173002552885,0.00288263927915
1377.0,-0.00013177425089999997,0.0022695571854,-0.000455961241,0.0031697120515
1378.0,0.0005693143761,0.00134873884042,-0.00026709334605,0.002064033371
1379.0,-1.1721829094999996e-05,-0.00127746499775,-0.00045477059285,0.0013669581108999998
1380.0,-4.951035665000001e-05,-0.0019787289669,-0.00054193662207,0.00209615665015
1381.0,-0.0005116999473500001,0.00018965874855000003,-0.00111113828355,0.001514233512
1382.0,-0.001571135641,0.003160984201,0.001711546704,0.00392296832
1383.0,-2.306007199999997e-06,0.0017793716430000001,0.00032201548349999995,0.0028697339065
1384.0,0.0006302269062500001,-0.000756613269915,0.0006855286032000001,0.0016968830465
1385.0,0.00019064781874999993,-0.0009173884710000001,-0.0008388660006,0.0029819246740000003
1386.0,-0.00027218072755,-0.0021471152285,-0.0013113852736,0.003013535029
1387.0,-0.00033831093505,0.0030646137025,-5.2136610995e-05,0.0031761267055
1388.0,-0.00013706148555,-0.001863655251,-0.00031076829795,0.002001020928
1389.0,0.00028470984215,-0.001714634978,-0.0005705376731,0.0021020229805
1390.0,0.00029507909179999996,-0.00016706912920000003,-0.0006205557672,0.00097251400115
1391.0,-0.0002497502137,0.0022738015509999997,0.0014417314145999999,0.002844861474
1392.0,-0.00012117583650000002,-0.0008256552996,-0.00060383179315,0.0012893342865
1393.0,-0.00013482901405,-0.001892945316,-0.00092222015875,0.002236208413
1394.0,-0.00026412653370000005,0.0006539416204500001,-0.000149113101,0.0018874717865
1395.0,0.00015174121339999998,0.0018723917023,0.0009018765629999999,0.0024935885120999997
1396.0,0.000368176591965,-0.0011870177398500001,-0.0005489946388499999,0.0014710657204
1397.0,-4.196239124e-05,-0.0009938709198,-0.0007300720339,0.0012537339078
1398.0,-0.0011325431783,0.00171085052845,0.0010872526098,0.0023228241515500002
1399.0,0.00041969059545000003,0.0006217678755,0.00013730688219999997,0.002105277936
1400.0,-0.00015128887139999997,-0.0011921513855,-0.0009208737448,0.001655862271
1401.0,-5.556397165e-05,-0.00074998511,0.000590470738275,0.001514816084
1402.0,-0.00085362180015,0.00231001827,-0.0005145831462500001,0.0027226842015000002
1403.0,0.00068219452315,-0.00049042163235,0.0008583705641,0.0021535571430000002
1404.0,-0.00067987624675,-0.0016881818138999999,0.00162198104886,0.0032164228055
1405.0,-0.00029174165195,0.0030453451810000002,0.00040613940924999996,0.0033564683414999998
1406.0,-0.0009394528244999999,0.00120978612415,-4.418189750000012e-06,0.002399095885
1407.0,-0.002016900445,0.0005204754576,0.001373210073,0.002494892385
1408.0,0.0035271106549999995,-0.00048563159699999993,-0.008341996611150001,0.011630691832
1409.0,-0.00080655667465,0.00216702625555,0.0021173598485,0.0032796758595
1410.0,-0.00030834074405,0.00044844702350000005,0.0033806169920000003,0.003938794913
1411.0,-0.00336342664935,-0.0035628634795,0.014209472594885001,0.016581167317
1412.0,0.00011617653574999998,0.0021526220118,-0.0010951315029999998,0.0040300376710000006
1413.0,0.00034600060779999995,0.0011147429870000001,-0.0010085319825500001,0.002438253493
1414.0,0.00034911870983999997,-0.0025064522129999997,-0.0009292436869,0.0027484986455
1415.0,-0.00049033570435,0.002242571744,-0.00021405857715000004,0.0025458152805
1416.0,0.0002822772594999999,0.007377643032,0.0052563828765,0.012769414359499999
1417.0,0.0011588593432,0.0019609136310000004,0.0035687286825000003,0.0120468615285
1418.0,-0.000120140062,0.0018931258275,0.0009256959115000001,0.0027396445525
1419.0,-0.00150253816595,-0.0009446590839999999,0.0011166583484999999,0.0044509171705
1420.0,-0.0002473590155,-0.005084280648,-0.0037746467335,0.0063900908025
1421.0,0.0004101894250000001,-0.0030652584529500004,-0.0008902466064999999,0.009521720081
1422.0,-0.0008794548055999999,0.0081533071775,-0.0065046266025,0.010724738231499999
1423.0,-0.00046059548600000007,-0.0010580083415000002,-0.0008242944205,0.0059333383655
1424.0,0.00048621351755500004,0.0006944392969999999,-0.0021914015184,0.00412164461
1425.0,-0.00029065971735,0.0008046278229999999,0.0028535136932,0.0036703245745
1426.0,0.0004352423814499999,-0.000398114172,-0.0017864051384,0.002398362168
1427.0,-0.00074943128095,0.0007356902806,0.0020566170615,0.003844077645
1428.0,-0.00048381017575,-0.00023094676640000002,-0.0006630415665000001,0.0026643870219999997
1429.0,0.00096554620955,-0.0023929300518,-0.0019824166839,0.0039901774555
1430.0,0.0006677201359,-0.0020876188692500004,0.0025912429795,0.004061732054
1431.0,0.00155069504415,0.0029847482005,-0.0045067070935,0.006940631290000001
1432.0,-0.00013296881359999997,-0.000546807641,0.00012488561850000006,0.002814045808
1433.0,-0.002108401162,0.0006274872679,0.0009885864405,0.002411721145
1434.0,-0.00034959614945,0.0013056803850999999,0.0006948990323,0.0021372894235
1435.0,0.00030600031205,-0.00148280593555,-0.00025862689570000004,0.0020473254830000003
1436.0,0.0002943246567,-0.0002383806311,-0.00092494138305,0.00125160803125
1437.0,0.00029949607400000004,0.003793220935,0.000713539143,0.004197660269499999
1438.0,0.00031031554054999997,-0.0012680513695000001,-0.0006941632394999999,0.001686053019
1439.0,0.000173754919325,-0.00077264781865,-2.4603711700000008e-05,0.0012234151771
1440.0,-0.00038550853700000003,0.0025259373505,0.0009480179676,0.002818992441
1441.0,0.0003742731870205,-0.0016091439095,-0.0009988043364,0.00197360086
1442.0,-0.000365686863125,0.00034604002199999995,0.00052223740791,0.001701159733
1443.0,0.00065402968055,0.0018331363815,-0.003257585897,0.0054872017365
1444.0,-0.000550466633,-0.0013868046855000002,0.0001290119640000001,0.0036771150660000005
1445.0,-0.0005295808,0.0021586628705,0.00122005504535,0.0028074035825
1446.0,0.0006006592198000001,-0.00112903214895,0.0005166062119499999,0.002102495209
1447.0,7.169645299999971e-06,-0.0014368502728500001,2.740317834999998e-05,0.0018506681225
1448.0,-0.0006227970862999999,0.0023133807780999997,0.0014927553344999999,0.0031331362154999997
1449.0,0.0006908414333,-0.00136612332635,-0.0007063988183999999,0.0021550504635
1450.0,-0.0007301956397,-0.001222535115,0.0026286101062499997,0.0036450416065
1451.0,-0.0009923861546,0.0025157472849999998,-0.0006762544905,0.0038697799025
1452.0,0.0009212885874,-0.0005634654866499999,-0.00149016052835,0.002386893152
1453.0,-0.0003791515663500001,0.0003920909684999999,2.2271830500000074e-05,0.0032203064155
1454.0,-6.519808150000014e-06,0.0020960423989,0.0011014226780999999,0.0025745148013
1455.0,0.00097412891095,-0.0012033879473,-0.0022483323265000002,0.003242417519
1456.0,-0.0003188286118,-5.466559124999999e-05,0.00106809261075,0.0017252986988500001
1457.0,-0.000172393752575,0.00282364881,0.000112883004755,0.002840255096
1458.0,0.003092454171,-0.0006440915441,-0.003245519871,0.004528965219
1459.0,0.0009052836515000001,-0.0030209649475,-0.0008333548696,0.0035880967544999996
1460.0,-0.0010811928796,0.003646887396,0.00120512955355,0.004482188583
1461.0,0.001615217538,-0.0011714403735500001,-0.004924543412,0.0057290103569999995
1462.0,-0.000149376462125,0.0014261856571,0.0006405759724999999,0.0022194596604999998
1463.0,0.0001554632783,0.0007564805930000001,0.0006176866523500001,0.0035529214479999996
1464.0,0.00013375170894999998,-0.0015462932667,-0.0008276708140499999,0.0019423808435
1465.0,-0.0011189884284499999,0.00183159027455,0.0022900145705,0.0036563640425000005
1466.0,0.0004196420846,-9.735774790000002e-05,-0.00018632699115000002,0.0011661734079
1467.0,-0.002239098695,0.00077512218855,0.005414395029,0.005925031464999999
1468.0,8.642120649999998e-05,0.0036769428475,0.0003057851995000001,0.0058290476105
1469.0,0.00112084726185,-0.0027002343455000003,-0.0034226049450000002,0.005001504672
1470.0,0.0029487712881,-0.0014093178850000001,-0.009738032996500001,0.0107705265895
1471.0,-0.00030795754591500003,0.0030360457065000002,0.0018659296615,0.003650199646
1472.0,0.00056124561665,0.0011948896010554998,-0.00123734045645,0.002136445057
1473.0,-0.00071076806115,-0.0011824170637,0.0010721249983,0.0021955483695
1474.0,-0.00044579017815,0.0028299509075,0.001595812327,0.00367845907
1475.0,0.00139078543785,-0.0004019805358,-0.0046319718105,0.0049697970705
1476.0,0.0054874470856000005,0.008273783118,-0.015353914537999998,0.018484453944499997
1477.0,-0.00281198941615,-0.0059401970395,0.0099859817585,0.0175157451
1478.0,-2.9464551299999996e-05,-0.00978772025405,-0.00155027756275,0.011263614384
1479.0,-0.00010759496205,0.0019826405779500003,-0.0016431277639999999,0.003446223807
1480.0,-0.000115569064625,-0.00079256045871,0.00067866980985,0.00121985623415
1481.0,-0.00011141243499999999,-0.0005900446305500001,0.00025863174175,0.00104489229185
1482.0,-1.0195610515000001e-05,-5.174084460000001e-05,0.0001383231948,0.00094890335955
1483.0,2.0245635678499998e-05,0.00117335533675,0.00068086264995,0.0022525748361
1484.0,-7.763131083e-05,0.001119977199,-0.0003830591564,0.001186216617
1485.0,0.000514779290208,-0.0031055845409999998,-0.0008324383479999999,0.003306823004
1486.0,0.00011551542680000003,-0.0007896342671745001,9.4831215795e-05,0.00113885607535
1487.0,-0.00034963407815,0.0017018300795,0.0009274443283,0.0019892331645
1488.0,0.0004119852526,-0.00045606812945000005,-0.0002372964451,0.00132846689585
1489.0,0.0016185745035,0.0032894897224999995,-0.0043084253425,0.0070231651325
1490.0,-2.334786435e-05,0.00046999188589999996,-0.0023732460835,0.0025031726399999997
1491.0,-0.0008024297216500001,0.0028083910389999998,0.00124153542325,0.0035191714190000003
1492.0,-0.000245208987,-0.001422067578,-8.748036649999997e-05,0.004825335158
1493.0,0.0015189763610499998,0.0006423182565000001,-0.00437059245015,0.00537010746
1494.0,-0.001258904178,-3.286232450000004e-05,0.002966938077,0.00352263606
1495.0,-0.0004685079456,0.00103191288715,-0.0008230631912999999,0.002085461513
1496.0,-0.00039883382039999996,-0.0053084691045,0.004598851555,0.0072327960864999995
1497.0,0.00100725720755,0.00233078832195,-0.00223001747775,0.0033853188409999997
1498.0,-0.0011150402100499998,-0.0008638118880000001,0.0024146528859999997,0.0028326179105
1499.0,0.00018485286730000002,-0.00025268700494999997,-0.0010950614025,0.0016191837754999999
1500.0,0.00038437776533000004,-0.00017557137499999993,-0.000602166837155,0.00194790847
1501.0,-0.0008974901526,0.0007419867965,0.0024283898299999997,0.0038962507405
1502.0,-0.00012937985474999994,9.264727580000003e-05,-0.0006154846861,0.001457036186
1503.0,0.0002509882861,-0.002374878428,-0.00048029437595,0.0024670261325
1504.0,-0.00030804411100000004,0.0009557584130499999,-0.0001703049467,0.0014113030615
1505.0,-0.00127869853355,-0.0016043618445000002,0.004841274753,0.006038441464
1506.0,-0.0004679604717,-0.007204628337,0.0049628432085,0.0095595069255
1507.0,-0.005301711718,-1.1042755000000189e-05,0.020715557155,0.023890339009999997
1508.0,0.00214115688193,0.0012555643275000005,-0.007623831357499999,0.01201542669
