Time (s),Linear Acceleration x (m/s^2),Linear Acceleration y (m/s^2),Linear Acceleration z (m/s^2),Absolute Linear acceleration (m/s^2)
0.0,-0.005495664462,0.005640804723,0.0524171848,0.05300549281
1.0,-0.012280812445,0.016889848659999998,0.05400355380999999,0.06421527336999999
2.0,0.0018246981675,-0.0077971682,0.057485169455,0.06152215789
3.0,-0.0076215718735,0.0009044101990000001,0.056906295105000004,0.05789047916
4.0,-0.008336981572,0.0007128665925,0.053832304915000004,0.054539563395000004
5.0,-0.0058499171235,0.00246860631,0.054390748404999995,0.054775694385000004
6.0,-0.009892826773000001,-0.001009714539725,0.055376141825,0.05627027345
7.0,-0.010182589270999999,-0.00104964113425,0.054425780105,0.05549929944
8.0,-0.0099856305405,-0.00080366253,0.055212815335,0.056203830765000004
9.0,-0.0073828256155,-0.00020853922649999995,0.056311982955,0.05693901655
10.0,-0.0057830847380000005,0.0012481591213,0.0522614447,0.052599139265
11.0,-0.007227916677999999,0.0013311480225000002,0.05562779567,0.056225437924999996
12.0,-0.0049651610215,-0.0040923451347,0.055315795125,0.055899805329999996
13.0,-0.005905893465,-0.00022927391199999993,0.055913930885000004,0.05625524573
14.0,-0.0063558596395,0.00010926482635000001,0.055385147685,0.055775067545
15.0,-0.0058045338445,-0.0002138468645000002,0.05523527552,0.05567713397
16.0,-0.0051168561395,-0.00026497202300000016,0.05608274344,0.056374198075
17.0,-0.0070527538745,0.0002645793425000002,0.056472827249999996,0.05697461696
18.0,-0.0061018919905,-0.00020234160779999998,0.056621679014999995,0.05695895409
19.0,-0.004338050009,-0.0024035875654999997,0.055983380905000005,0.0562031527
20.0,-0.0045128724415,0.0007564261989999999,0.055483679,0.0557480571
21.0,-0.005205374816,-0.0004329483408499999,0.056801681534999995,0.057085109325
22.0,-0.004322948284999999,0.0007309822124999999,0.05594319563,0.056171088205
23.0,-0.0011333673861500001,0.002047266412505,0.057371607355,0.0574591281
24.0,-0.013707631955,-0.0035672923990000003,0.05496252584,0.05711911791
25.0,0.01075269495,-0.00201973219,0.05833605398,0.070903140245
26.0,0.02318757221,-0.009552352577,0.08333518246,0.08702679806
27.0,0.013513287992000002,0.003855721359,0.047910875485000004,0.05300215956
28.0,-0.01770167794,-0.017027360695,0.053265595065,0.05911414977
29.0,0.00519393405,-0.01941899801,0.06463141859,0.071106012385
30.0,-0.028451946579999998,0.010459895625,-0.007396681939999997,0.07981382756
31.0,0.035558443245,-0.04507649717,0.08837879003,0.11091480148
32.0,-0.00040711382300000036,-0.024263038549999998,0.10365521993,0.107215913315
33.0,-0.0063392373500000005,-0.023572922354999998,0.037173558875,0.09345147623
34.0,-0.014165930415,-0.025238845685,0.06289634332499999,0.06926394353
35.0,0.007661089305000002,-0.0162997298815,0.056798545820000004,0.06716791012000001
36.0,0.0034593933558649996,-0.01230173129,0.059167430595,0.060649502495
37.0,0.0012285430025,-0.012428852340000001,0.060507085025000004,0.061784669165
38.0,0.0011761459315,-0.013882174925,0.057900843425,0.059700790335000004
39.0,-0.0046636646815,-0.0108534985075,0.056743570529999995,0.05877660317
40.0,0.0027438102445,-0.0054155170105,0.05637165322,0.056717829675
41.0,-0.0023355241119,-0.011307853679,0.059059130985,0.060312616025
42.0,0.000209391945415,-0.015084300120000001,0.05840537788,0.060366538755000004
43.0,0.0020874244585,-0.01379092826,0.058596576105,0.060237712
44.0,0.0017772268024999999,-0.0111854010885,0.05798507773,0.059244845205
45.0,0.00106065768955,-0.0116779494645,0.05781576644,0.05933819772
46.0,0.0048010183565,-0.0058624513755,0.0559498454,0.056467109065
47.0,0.002541529545,-0.009002841139999999,0.058239316955,0.05916039329
48.0,0.007984907535,-0.0092961298795,0.058370036619999996,0.059684682405
49.0,0.0084695342295,-0.007381471297,0.0598109912,0.06090452145
50.0,0.011796933855,-0.0076464089244999995,0.0601780301,0.061805613825
51.0,0.008844547123,-0.01243819284,0.06090942506,0.06279245747
52.0,0.013784337966499999,-0.01112492325,0.05965547819,0.0635198713
53.0,0.012527865910000002,-0.009110839786,0.05931496387,0.06134142916
54.0,0.014616810930000002,-0.011514106325,0.061443229985,0.06430666028
55.0,0.014459720035000002,-0.010733654232,0.060609497289999995,0.06331341006999999
56.0,0.01562363554,-0.01311900651,0.06146278376,0.06477552113
57.0,0.012360407671500002,-0.0103633090805,0.05962017133,0.062244360675
58.0,0.017597500765,-0.01233576768,0.060312498859999994,0.06405052354499999
59.0,0.015044405770000002,-0.014406456630000002,0.060826211150000004,0.06432179908499999
60.0,0.015884755280000003,-0.013220058005,0.060852644005,0.064318993795
61.0,0.013456051200000001,-0.013134321774999999,0.0598982007,0.06294124347499999
62.0,0.013171327625,-0.016034737795,0.062091640340000004,0.06547509781
63.0,0.013008038395000001,-0.013571462055,0.061470860945,0.06429618442
64.0,0.00973102371,-0.019729338265,0.06264557230000001,0.06643278455
65.0,0.007855185336,-0.01761468771,0.062753579545,0.06567095503
66.0,0.00794639187,-0.015805196605000002,0.06238560624,0.065023089305
67.0,0.0033151863995,-0.018044324065,0.059701745720000005,0.06253099208
68.0,0.0058854074295,-0.014227362720000001,0.06072154599,0.062677544915
69.0,-0.0055473867715,-0.015392443369999998,0.06097073483,0.063340654995
70.0,0.0100974406255,-0.018453581145000002,0.061018813845,0.064653919935
71.0,-0.0053725148955,-0.015791345295000002,0.060589347325,0.06297504259
72.0,0.0065744158055,-0.01974520959,0.06181091666,0.065240354725
73.0,-0.0056695620495,-0.016061243025,0.060978880804999996,0.06346960691
74.0,-0.0021108806795,-0.014893521810000001,0.05981235555,0.061688669135
75.0,0.000723198823,-0.019603641045000002,0.06326957913,0.06638502966500001
76.0,-0.002144725739,-0.01799635683,0.061274394494999995,0.06393203447000001
77.0,-0.003881186843,-0.01067389153,0.05896565006,0.0600495084
78.0,-0.00300166672205,-0.017236572065,0.060839040629999994,0.063417426235
79.0,-0.0031123625399999996,-0.01516025373,0.060199653335000006,0.062675195165
80.0,-0.0023686755315,-0.013646481255,0.059694253259999996,0.0613791316
81.0,-0.0025740561150500003,-0.013742368425,0.06019844949,0.06189708620000001
82.0,-0.00118597011345,-0.014385604425,0.05746421693,0.05928739578
83.0,0.004627156845,-0.0109108864935,0.059326572315,0.06073154283
84.0,0.0012269149545000003,-0.01380499096,0.06002154256,0.06174616079
85.0,0.0011580539580000001,-0.0112133695535,0.05802681653,0.059417298179999994
86.0,0.0003258661882,-0.008768273921,0.05802842738,0.058688595965
87.0,0.0149608321505,-0.006820306990000002,0.055533609634999995,0.064829602815
88.0,-0.0059316907200000005,-0.015760929742,0.06172861423500001,0.07406771731
89.0,-0.007890882012500001,-0.0015442912150000002,0.05838056161,0.05917998878
90.0,-0.0066153907424999995,-0.010219450375,0.055988345305,0.0574032075
91.0,0.004371672216,-0.0015172528585,0.059709370035,0.06010891922
92.0,-0.0030389627875,-0.00610247957625,0.056825162119999995,0.05816909362
93.0,0.0033611658655,-0.004126642351,0.05893099098,0.059220009315
94.0,-0.0009323500009999999,-0.0028793588784999996,0.05868735126,0.05881460333
95.0,0.00022033684389999997,-0.004325778022,0.059685172875,0.059846835185
96.0,0.0008261915074999999,-0.0051027755285,0.059432940045,0.05974190219
97.0,-0.0063069085545,-0.0045713266839999996,0.056042919314999995,0.056782074675
98.0,-0.003559415138,-0.006343313922899999,0.058931610095,0.060995470749999996
99.0,-0.0056833589015,-0.0078628332915,0.059478731765,0.0605734258
100.0,0.00016153363149999992,-0.00264266487865,0.058109778200000003,0.058244598885
101.0,-0.0057668322015,-0.008130680197000001,0.059044300845,0.05997360401
102.0,-0.001112899982,-0.0069379635719999996,0.05790221351,0.05857967987
103.0,-0.008844082785,-0.006611850884,0.05816518917,0.05920408435
104.0,-0.0063330949075000005,-0.010625071584000001,0.0582994057,0.06008600695
105.0,-0.00103471496965,-0.0067300563615,0.060607410635,0.061027018995
106.0,-0.0040068833485,-0.006961766611,0.0583565651,0.058984549205
107.0,0.001169405869,-0.009563903695,0.059269258135,0.060392676565
108.0,-0.003290446087,-0.0092238902535,0.058475103065000006,0.059810290765
109.0,-0.001990439502,-0.007018354905,0.060876697845,0.061389911889999996
110.0,-0.00595639950545,-0.0111831610855,0.056653317035,0.05860300324
111.0,-0.0047687296875,-0.0045277033025,0.05858273769,0.059025576930000004
112.0,-0.001781031792,-0.00598043471565,0.060310876545,0.060892321165
113.0,-0.003626685347,-0.003994142724,0.057773855665,0.05906029012
114.0,-0.004157883393,-0.008531630796999999,0.05938588716,0.06031832139
115.0,-0.0093652388115,-0.006119640009500001,0.056825907355,0.058021813355
116.0,-0.0006572385045,-0.0061937842805,0.059265033235,0.05980501036
117.0,0.0015194376819,-0.004576496024,0.059201052085,0.05945357409
118.0,-0.002268615054,-0.00554138406,0.059608402375,0.059953883954999995
119.0,-0.00236985214037,-0.005320410185,0.057695881325000004,0.058141663655
120.0,-0.007415908961000001,-0.0035894845890000002,0.05781476324,0.05840462732
121.0,0.00015926496949999992,-0.006927051635999999,0.05890913271,0.05951135481
122.0,-0.0005497744197000001,-0.00055788098222,0.057500441005,0.057511169605
123.0,-0.0044896498235,-0.0016490875075,0.05946023852,0.059779513765
124.0,-0.0046393700735,-0.0042234524645,0.057758738885,0.058178818965000004
125.0,-0.0025870246085,-0.0027626596325,0.058985914675,0.05911375026
126.0,-0.0097234208945,-0.0040223197111,0.056794338119999996,0.057893109135
127.0,-0.00349317535745,-0.0029623635443,0.05928911574,0.059646581905
128.0,-0.02124271663,-0.01910151355,0.05407200063,0.06115473883
129.0,0.008768066113475,0.0025779886565,0.059492054245,0.061467524860000004
130.0,0.005276980992499999,-0.000792700434999999,0.049091560175,0.05246124463
131.0,-0.0180092379,-0.021081755535,0.069059750035,0.074523484035
132.0,-0.004355188225000001,-0.012937033425,0.043774480607349994,0.05716887256
133.0,-0.0015727061050000001,-0.023094172975,0.07552137049,0.093049318255
134.0,-0.0155249293825,-0.012779463856000001,0.05383778525,0.061996742435
135.0,-0.01238137847,-0.017251771243,0.0527275939,0.064692189575
136.0,0.055620774735,0.0006375428499999988,0.19919308855,0.23769519805
137.0,0.010503198674999999,-0.05873923383,0.05120710575000001,0.2076654169
138.0,-0.04897937107,-0.07070861758,-0.0030575377249999966,0.12953782554999999
139.0,0.07828538040000001,-0.06407952210000001,-0.052163360549999996,0.4082801089
140.0,-0.049451478785,-0.141109555482,0.14642655336500002,0.296565744
141.0,-0.01962961171,-0.006797088668,0.05389320195,0.05970056124
142.0,0.00171271109,0.0008061024525000005,0.06082900864,0.06334335968
143.0,-0.009838464148499999,-0.001525598038905,0.057419990195,0.05830127062
144.0,-0.007640824689,-0.00338387111975,0.058385239384999996,0.059158494980000004
145.0,-0.006516364276,-0.0012972542360999999,0.05706408967,0.05757024264
146.0,-0.008083598647,-0.0030829638,0.058262596900000005,0.05890318837
147.0,-0.006266285455,0.0003108461530000001,0.0564709527,0.056889867345
148.0,-0.01197461254,-0.0011978916979499999,0.058420230955,0.0596648389
149.0,-0.010420793083999999,0.00151693183475,0.056820719384999996,0.057808207385000004
150.0,-0.0083015973205,0.00026528229800000004,0.057306451024999996,0.057932222065
151.0,-0.0110382733895,0.0019413565695,0.056263554255,0.05745779244
152.0,-0.004389651689000001,-0.0039148635089999995,0.058004505385,0.059009448505
153.0,-0.00189729177995,0.00161330985675,0.056640865905000004,0.056728728955
154.0,-0.00725921218,0.0001400809428,0.0545277051,0.05500896661
155.0,-0.0031394904680000003,-0.0008991477045,0.057441045905,0.05759803344
156.0,-0.0070998605055,-0.003191336496,0.058357700145,0.05890696985
157.0,-0.004533653704,-0.0013977460892499998,0.057358714815,0.05757810851
158.0,-0.007036955643500001,-0.00209126097745,0.05674821964,0.05733576355
159.0,-0.007901429216,-0.0027066445965,0.05744173381,0.058064348115
160.0,-0.007475193708,-0.0028365122595,0.0564707406,0.057036579000000004
161.0,-0.009404015309000001,-0.0041669881385,0.056199154625,0.057159315225
162.0,-0.008554137561499999,-0.0051745293205,0.056648536075000006,0.05752716243
163.0,-0.01167161928,-0.005248605517,0.058865284325,0.0606935444
164.0,-0.013536766425,-0.004078772572,0.056869394585,0.058703862355
165.0,-0.0121357785715,-0.0013971828647,0.056418643049999995,0.057823770815
166.0,-0.01451975002,-0.005550741755,0.057005915605,0.05911913994
167.0,-0.021054682785,0.0010072158589999993,0.054312046030000005,0.058970797215
168.0,-0.0122757197805,-0.00427703976,0.058197234205000004,0.05985767961
169.0,-0.017360148235,-0.003374540655,0.055895552285,0.058629405654999994
170.0,-0.01753470697,-0.0030590769209999998,0.056124149755000005,0.058915546220000004
171.0,-0.0183487003,-0.0033319706315,0.0561053928,0.05930090064
172.0,-0.014967710504999999,-0.004690518879,0.0558695723,0.058098186845
173.0,-0.017382880725,-0.005307612235,0.05730755168,0.060121413585
174.0,-0.016976699875,-0.0032729732289999997,0.05651117237,0.059097259545
175.0,-0.015294124874999999,-0.0048791596575,0.05657988289,0.058834832865
176.0,-0.02209385124,-0.007262686115499999,0.05617131156,0.061057787415
177.0,-0.020121839065,-0.0058110008935,0.05634252033,0.060202099085
178.0,-0.02069345742,-0.0051917678575,0.056272474125,0.060193931935
179.0,-0.02509058151,-0.009135562186,0.056966125874999995,0.06292155234499999
180.0,-0.02424026737,-0.002241404004,0.05345155372,0.0587340025
181.0,-0.0263531136,-0.0061918939670000004,0.056391808914999994,0.062615291635
182.0,-0.02699520667,-0.0048676300375,0.055565706265,0.06200598833
183.0,-0.028797876025000002,-0.007829206787500001,0.05668533914,0.064067293055
184.0,-0.031267499865,-0.0076280654355,0.056117712085,0.06469245261
185.0,-0.03051656618,-0.0112020950285,0.05662843771,0.06542460892
186.0,-0.03059042311,-0.01153193962,0.055462210545,0.06438506675
187.0,-0.030573218965000003,-0.011505997615,0.056038700149999995,0.06488268871
188.0,-0.03174633022,-0.011307866574999999,0.056124820465,0.06551013752
189.0,-0.03038324823,-0.00849562098,0.05513586139,0.06354737863000001
190.0,-0.02924219061,-0.007681410529500001,0.05564089458,0.06333934788
191.0,-0.02693834823,-0.0116324615675,0.05585233448,0.06319383232
192.0,-0.0207065255195,-0.008262537058,0.051642453865,0.059263951664999995
193.0,-0.031819330845,-0.012432701042000002,0.06240916708,0.07161284568500001
194.0,-0.02848991837,-0.009334733688,0.05637938645,0.06392928447
195.0,-0.029966851235,-0.0088951599335,0.055224681745000004,0.06345795804
196.0,-0.0210539948755,-0.0088872403955,0.054679062,0.06062596533
197.0,-0.021177198435000003,-0.010341770402499999,0.058245548255,0.063446717215
198.0,-0.02018558375,-0.0065846233535,0.056468367315000004,0.06036428545
199.0,-0.02019759204,-0.0109992382085,0.054947924999999995,0.05995819542
200.0,-0.02330537068,-0.011302798991,0.059361380445,0.065048939815
201.0,-0.019767098665,-0.011418740103000001,0.056512708695,0.06136167827
202.0,-0.019443757675,-0.0101903411305,0.057312424355,0.0628119015
203.0,-0.032232170064999996,-0.0062999477895,0.053323620084999995,0.065760951685
204.0,-4.7670575000000395e-05,-0.008857652481,0.060377018874999994,0.06314025156
205.0,-0.01684671971,-0.01109991135,0.0594974142,0.0628248541
206.0,-0.0199543622,-0.0085930201125,0.05636439006,0.06048066075
207.0,-0.01181843742,-0.0097128701125,0.058471399825,0.060447461120000004
208.0,-0.015403658415,-0.008633054909,0.056966790855000005,0.059741789744999996
209.0,-0.01497413098,-0.009405358877,0.05739055348,0.06006549149
210.0,-0.01305453881,-0.007044029628500001,0.057323860825,0.059263508725
211.0,-0.010833256105000001,-0.008302265881,0.05762686698,0.059230577709999996
212.0,-0.013582070165000001,-0.0067831133940000005,0.05577653278,0.057866608900000005
213.0,-0.013402424494999999,-0.007943735541,0.057196907455,0.05928876135
214.0,-0.015320419430000001,-0.0079560010805,0.056753149645,0.059425501820000004
215.0,-0.01535896448,-0.0105326970405,0.05757681596,0.06068225968
216.0,-0.0128352768225,-0.0050154399105,0.056399232585,0.05825526691
217.0,-0.02067661228,-0.007688210786,0.057531832525,0.06206976065
218.0,-0.01926228117,-0.008016361397500001,0.05701720876,0.060835888064999996
219.0,-0.017001038195,-0.010495528528,0.05893615602,0.062277402905
220.0,-0.028992629154999998,-0.0013207419849999998,0.052480331205,0.060122455224999996
221.0,-0.020835081859,-0.005060140298,0.05554821621,0.060777990645
222.0,-0.0208324506125,-0.0077976748175,0.057336225965,0.06399422322000001
223.0,-0.02418077983,-0.0006565462974999999,0.054873630965,0.060369350414999995
224.0,-0.01929673388,-0.0089799158975,0.05585480522,0.060264605725
225.0,-0.023878156325,-0.0059802441080000004,0.057457848049999996,0.06253344139
226.0,-0.02236698715,-0.0018226803049999998,0.056307328115,0.060642894385
227.0,-0.019979172735,0.0001647539,0.054406902775,0.05878684084
228.0,-0.02264443897,-0.0024715779285,0.05619474628,0.060753849585000005
229.0,-0.02947345372,-0.0036931128709999997,0.057052590145,0.06434480201500001
230.0,-0.022833392888,-0.00228551895285,0.05524980184,0.061587044354999995
231.0,-0.02362482069,-0.004905739409,0.05809867996,0.06290989624
232.0,-0.02972536266,0.0013482819405,0.054350310895000004,0.062104027535
233.0,-0.029482603609999998,-0.0011179912155,0.053794492925,0.061427908745
234.0,-0.02840396215,-0.00051744204,0.055130146025,0.06213543544
235.0,-0.02130850282,0.000521188271,0.058237390815,0.062629287065
236.0,-0.035001387035,-0.0057878599665,0.051559274355000004,0.064105251255
237.0,-0.034874516785000004,-0.0080571586265,0.054418379365,0.06528128226499999
238.0,-0.03018630025,-0.007091091113000001,0.05662144398,0.064678940125
239.0,-0.025932750390000002,-0.0068412029036,0.055292423455,0.06192749224
240.0,-0.03275655281,-0.0119070356345,0.055573336305,0.066081996145
241.0,-0.027398875225,-0.011166052963500001,0.057318546740000004,0.06456294562
242.0,-0.03077765081,-0.011383593753,0.054558815725,0.06369631296
243.0,-0.027834775115,-0.0100407111685,0.05513665248,0.06270389565000001
244.0,-0.030073978535,-0.0087632514785,0.05577936467,0.064433614655
245.0,-0.02622456873,-0.009720677147,0.05649136063,0.063043368195
246.0,-0.02688231886,-0.01015994206,0.056299703805000004,0.06322141256
247.0,-0.021861058965,-0.0102916097485,0.057575663715,0.062476175429999996
248.0,-0.02848338683,-0.016666620450000003,0.057776767805000004,0.06654664872999999
249.0,-0.023040362109999997,-0.0107327477705,0.055703190355,0.061356819660000006
250.0,-0.023701796135,-0.013726792335,0.057008145575,0.06330796724000001
251.0,-0.020243696899999997,-0.01422612807,0.05744725427,0.062692906725
252.0,-0.016985366075,-0.01912073627,0.058899863149999995,0.064376645755
253.0,-0.02384937097,-0.012201588409999999,0.055387922245,0.061606657535
254.0,-0.014133778607,-0.014605345799999999,0.058463276780000004,0.06304967577500001
255.0,-0.019253562655,-0.015131931285,0.056125938315,0.061534280639999994
256.0,-0.01761367376,-0.01632700972,0.05710288767,0.06194798245
257.0,-0.012610111725000001,-0.01614031945,0.05787558002,0.061429077309999996
258.0,-0.017099552310000002,-0.012820361405000001,0.05713166514,0.061050384595
259.0,-0.008277959808,-0.01717334331,0.059588074705,0.06260091187
260.0,-0.01987239298,-0.01745190581,0.0561205669,0.062127260234999995
261.0,-0.006173734635999999,-0.016956289075,0.059194390845,0.06194002901
262.0,-0.011145290334,-0.019616041299999998,0.058940271995,0.063140871125
263.0,-0.011230690493,-0.01842384777,0.058233848095,0.062507300485
264.0,-0.006762051234499999,-0.019338358745,0.059672463785000004,0.063305180495
265.0,-0.007974701423,-0.01653195535,0.059448119875,0.06298583845
266.0,-0.010638944390500001,-0.01845807548,0.05850275695,0.062617420105
267.0,0.004747048413,-0.02008302674,0.05981226956,0.06389925035999999
268.0,-0.0098766136485,-0.01897222989,0.057678402735,0.061608712265000004
269.0,0.00043839212715000007,-0.026990771095,0.082113785105,0.08671653878999999
270.0,-0.009898511325000001,-0.01476767554,0.035836323567499995,0.0558670395
271.0,0.015031439430000001,-0.015732226075,0.06235010447,0.066221836825
272.0,-0.043268908565,-0.02853383411,0.05387572909,0.07877792822
273.0,-0.011602416485000003,-0.0262728268875,0.0583659837,0.081011255955
274.0,0.05520568977,-0.012547547235000001,0.067824783695,0.115608484735
275.0,-0.039794776065,-0.033068768325,0.05489333952,0.091462776885
276.0,-0.0089008337405,-0.012981391290000002,0.057935531175,0.0603539365
277.0,-0.0088429649365,-0.01884025551,0.05837512141,0.06203511212
278.0,-0.0034196910485,-0.01370839152,0.058221643465,0.060051114254999996
279.0,-0.0119108864885,-0.016364218365,0.057525056635,0.06391433268499999
280.0,-0.014224060765000001,-0.01981792215,0.05768816529,0.062641356755
281.0,2.413552920000001e-05,-0.01587878983,0.060315061315,0.06261500206500001
282.0,-0.01108513137,-0.01506519492,0.05691988128,0.05991421468
283.0,-0.01078280739,-0.014265166829999999,0.057539336455000006,0.06028533014
284.0,-0.0078490844545,-0.01691047299,0.05835657656,0.061264002750000005
285.0,-0.009051910457,-0.01647686254,0.058483294899999996,0.061472006329999995
286.0,-0.0082183805505,-0.013382141965,0.058033070755,0.060151552015
287.0,-0.008234982773,-0.013573918455,0.058129882305000005,0.060352264955
288.0,-0.0072476868595,-0.01324713864,0.05826699951,0.06023809592
289.0,-0.009136920804,-0.01217543573,0.058462095875,0.060423037294999996
290.0,-0.013117079655,-0.010940887149999998,0.058569673180000004,0.061017453435
291.0,-0.011774656395,-0.0056297551225,0.056162414620000004,0.057660667805
292.0,-0.01518108802,-0.006304600481999999,0.05625037509,0.058704020205
293.0,-0.012766293290000001,-0.0032566504685,0.057205873185,0.0587401453
294.0,-0.013070582825,-0.002426881124,0.055440249090000004,0.05701421709
295.0,-0.010802094605,0.00339579771976,0.05598197069,0.057251868565
296.0,-0.012865322625,0.0033820238010000003,0.05448410895,0.056147108965
297.0,-0.0189659470035,0.00269047804825,0.05418681816,0.061311195910000005
298.0,0.0009066287000000003,0.002730354483,0.060363323775000005,0.063128345465
299.0,-0.0156860044055,-0.0028709062124999997,0.056369612425,0.062163684435
300.0,0.00047070730999999866,-0.034477532405,0.10460546124,0.11717452713
301.0,-0.042636570865,0.027313563904999998,0.013462841425000004,0.145483248885
302.0,-0.020091303845,-0.005277126457,0.050392611515000005,0.055020100414999995
303.0,0.00807875463,0.008037565440259999,0.061155397925,0.06584138570999999
304.0,-0.012171195065000001,-0.0018335650119999998,0.056381140615000006,0.057893917064999995
305.0,-0.00928633651,0.0040007624045,0.060254043905,0.066436920025
306.0,-0.0009606882150000016,-0.005378954000000001,0.06312503825,0.073212557695
307.0,-0.0033137045299999994,0.052711177990000004,0.055871613095,0.089322309395
308.0,-0.07337878441,-0.009303122176,0.01937562041,0.07646181237
309.0,0.011175066715000001,0.016025495465000004,0.073845002429,0.1583653094
310.0,-0.058732503805,-0.063204792545,0.042871670515,0.15439267882500002
311.0,0.003934869439999995,0.0049581952395,0.061094007894999997,0.092195967625
312.0,-0.01460689216,0.01425460530065,0.06255692392500001,0.068242726595
313.0,-0.03234538105,-0.0011120200335,0.056047774800000005,0.065018682745
314.0,-0.0013043475649999999,0.004360652794,0.060300993605000006,0.06274431231
315.0,-0.019608527335,0.010109871690000001,0.054600783835,0.059091759630000004
316.0,-0.0068864966095,0.0093876932645,0.058730437215,0.059966624205
317.0,-0.019347181159999997,0.0045197092415,0.056971583275,0.061074331685
318.0,-0.013406187925,0.008360074495000001,0.05642827376,0.058705885294999996
319.0,-0.01295989489,0.0093601339605,0.0585408957,0.060756554234999996
320.0,-0.006910217961,0.0068749153965,0.057697956505,0.058581653075000004
321.0,-0.01866799697,0.010636694357000001,0.05592397434,0.0600147235
322.0,-0.014011846245,0.008462966858,0.056985100664999996,0.059392116625
323.0,-0.016225951781,0.010200943507,0.055313003365,0.058891263390000004
324.0,-0.015638151825000002,0.0093448215645,0.057307523015,0.06027129938
325.0,-0.014644800176500002,0.01837356458,0.056635672205,0.061744740275
326.0,-0.017017098685,0.0150566061,0.055761255499999995,0.060261991975
327.0,-0.020427813975,0.015711456994999998,0.05412719376,0.059993548475
328.0,-0.021161536355,0.01460996338,0.054451054985,0.06040730668
329.0,-0.021096447385,0.013909982875,0.056226986225,0.06171238807
330.0,-0.022585760439999998,0.015463520715,0.05385375044,0.060509208485
331.0,-0.022738157795,0.01454934653,0.053508609935,0.06002334281
332.0,-0.024364715605,0.016194417659999998,0.05444726003,0.061898425519999994
333.0,-0.01915133383,0.01275424344,0.05585090707,0.06040503401
334.0,-0.027314852310000002,0.017259427795,0.052505216265,0.06383018612000001
335.0,-0.019364611025,0.01784449045,0.05455843165,0.060648815265
336.0,-0.032399457755,0.01375851276,0.05206061004,0.06538062830500001
337.0,-0.030589662825,0.018348857225,0.053044811085,0.064135972945
338.0,-0.026461392425,0.01596576215,0.05332979979,0.06178297394
339.0,-0.029045921935,0.01905857234,0.05280445039,0.063221778205
340.0,-0.028961509925,0.017914275110000002,0.052517271845000005,0.06281952088000001
341.0,-0.02926351145,0.01725954245,0.05330952944,0.063220145625
342.0,-0.029213887505,0.016936103285,0.052690813765,0.062653520945
343.0,-0.027478977065,0.01493340756,0.05405990492,0.062480402285
344.0,-0.02652547533,0.01554889723,0.053678700855,0.062045141935000006
345.0,-0.02591008598,0.011365201535000001,0.05496290992,0.061838725129999994
346.0,-0.02502849067,0.01594577628,0.053803819805,0.06146373075
347.0,-0.028063062309999998,0.012162154094999999,0.053630581705,0.061764437389999996
348.0,-0.02726568554,0.01164340217,0.05417608107,0.06204109646
349.0,-0.03294613086,0.01383331413,0.052164036965,0.06336438896499999
350.0,-0.032833602055,0.011603962841,0.05474818526,0.064911693595
351.0,-0.02980217616,0.014402211665000001,0.055109881405,0.06436088959
352.0,-0.027848208665,0.012966531765,0.054539737755,0.06263909642
353.0,-0.028289915645,0.010106386295,0.053972649555,0.061771342365
354.0,-0.028786046165000002,0.012763082335,0.054739145005,0.06315656777499999
355.0,-0.03027793171,0.017852812699999998,0.053960616905,0.064410685045
356.0,-0.027695798405,0.01368871879,0.054665636335000004,0.062921792825
357.0,-0.027816296915,0.012697615735,0.054719516705,0.062705352215
358.0,-0.028050718665000002,0.012252770895,0.053773488805,0.06190203767
359.0,-0.02265868582,0.01361373398,0.05370265151,0.059855865
360.0,-0.020150885255,0.008842372331,0.05755466533,0.061847625545
361.0,-0.013917604319999999,0.010344007535,0.056761628110000004,0.05938721311
362.0,-0.017826721650000002,0.0091471147385,0.056044679215000004,0.05994988881
363.0,-0.01740024179,0.0075976498815,0.05665963432,0.059855130815000004
364.0,-0.013708445980000001,0.0031786539145,0.057090688769999995,0.058821900885
365.0,-0.0057284426515,0.0032427740795,0.05986194223,0.060349752315000005
366.0,-0.0116904400075,-0.0007225467439999999,0.05935913901,0.0607674313
367.0,-0.0086669479815,0.0021750108765,0.058875855175000005,0.059929411414999995
368.0,-0.015171836380000001,-0.0009202944180000002,0.05666118785,0.058964876624999996
369.0,0.0031189578555,-0.0035802816729999997,0.064199315085,0.06456497114000001
370.0,-0.0014271333639,0.003051125854,0.06030459365,0.060408462659999995
371.0,-0.002339942486,-0.0016822869375,0.060080037645,0.060294001944999995
372.0,-0.0036617156164999998,2.4435049999994764e-07,0.060933771255000005,0.06106886859
373.0,-0.0029077830824999996,-0.0044475269405,0.060253264275,0.06051078276
374.0,-0.0024761181195,-0.0029072499535,0.061280419424999996,0.061421649965
375.0,-0.0015883201755000002,-0.003836435579,0.06109482765,0.061357669865000006
376.0,-0.005493305759,-0.004912032332000001,0.060522815185,0.06098521186
377.0,-0.007273252663,-0.0067113667685,0.060911299605,0.0617403392
378.0,-0.0110651490825,-0.0055259383825,0.06025886499,0.061604703865
379.0,-0.0151891315225,-0.007729137711000001,0.05793028015,0.060668122685000006
380.0,-0.008481238691,-0.0051020188276,0.060647303550000004,0.062548667215
381.0,-0.01601925987,-0.005863925361,0.058461826445000004,0.061018101724999996
382.0,-0.020041591045,-0.0054917522345,0.057532640815,0.06138419665
383.0,-0.024492987464999998,-0.004702003355,0.057694482575,0.06423068466
384.0,-0.014928415930000001,-0.0019030659055,0.05813686457,0.07179970258
385.0,-0.01307472102,-0.00923080301,0.05858159118,0.06072856724
386.0,-0.04635141447,-0.008158215855,0.053618153505,0.074236624595
387.0,0.030652068954499997,0.007512169465,0.068058311165,0.077422115945
388.0,-0.04680143654,-0.0100513414935,0.05136436143,0.070289673115
389.0,-0.01502027454,0.0020253723159,0.059729055655,0.06263961217
390.0,-0.022918929915,0.0002636313195,0.057083058725,0.06155033613
391.0,-0.023619205645000002,0.00153811366,0.056281376795000004,0.06105821742
392.0,-0.02482879106,-0.000876057652,0.056970878175,0.06226726874499999
393.0,-0.026927809625,0.0007565523160500002,0.055808457435,0.062004256535
394.0,-0.02608302598,2.3978600149999975e-05,0.055090448015,0.060963846695
395.0,-0.02147314995,0.0024247779895,0.057881685195,0.06204156053
396.0,-0.02756287887,-0.0009533727479999999,0.056974294780000004,0.063392705495
397.0,-0.0219687874675,0.0006108462939999999,0.05490513141,0.061070018224999995
398.0,-0.02570850895,0.0021724555860000005,0.057945752340000004,0.07649545788
399.0,-0.0245495148529,-0.0015644110825,0.057862968375000004,0.06802896904
400.0,-0.05205098936,0.0055250355049999995,0.049892376485,0.07261732194000001
401.0,-0.01948822088,0.0010833973395,0.058023348325,0.06158302384
402.0,-0.031497616465,0.0005229897293,0.0562038324,0.06516024740000001
403.0,-0.031297697585,0.00278378413225,0.057352655495,0.06622965472
404.0,-0.039457342275,0.0016885468979999999,0.051615172585,0.06587606306499999
405.0,-0.03655406356,0.0017158597009999997,0.054650685805,0.06594923114500001
406.0,-0.035314889514999996,0.006559450946,0.05451747821,0.06569572846499999
407.0,-0.034687511935,0.0076967437065,0.05403558738,0.06467299802500001
408.0,-0.032086383785000006,0.0074265930255,0.05469109465,0.06390855742
409.0,-0.034061706515,0.00578362216835,0.05447898977,0.06478969905000001
410.0,-0.03425807121,0.009400274811,0.05472680853,0.06524572155
411.0,-0.03013449865,0.0075418405015000006,0.056498170915,0.064850859325
412.0,-0.029811590465000003,0.009194430605,0.05490377279,0.06318779385500001
413.0,-0.028543492764999998,0.01110990536,0.05413696778,0.06221321535
414.0,-0.02925834211,0.008645276734,0.05459714939,0.062601199755
415.0,-0.02980689836,0.0069640933175,0.056099264695,0.06395589367
416.0,-0.028289356725,0.008451958185,0.056022167435000006,0.063389283845
417.0,-0.0259074533,0.014638902085,0.055188583779999995,0.06270146655
418.0,-0.030627947755000003,0.0087551148195,0.054826222655,0.06349524003
419.0,-0.029032550730000002,0.010077098621000001,0.054342331165,0.06248355933000001
420.0,-0.025039841145,0.011960434471500001,0.055435129915000006,0.062075590015
421.0,-0.02581884648,0.01274225522,0.05397987832,0.061179182459999995
422.0,-0.01870572154,0.0094979820685,0.057190744945,0.06119478324
423.0,-0.018751554828499998,0.014850364916999998,0.049017822200000005,0.058135535065
424.0,-0.031022014263,0.01344611667,0.056907567735,0.08692207015
425.0,-0.02190041804,-0.0291238539975,0.06259583657000001,0.076885457035
426.0,-0.03716808713,0.044660794536000005,0.046717246665,0.090787901625
427.0,-0.0087659049375,0.01717560839,0.056959384385,0.06251051267
428.0,-0.018042711779999998,0.01296186904,0.055653093475,0.05995175773
429.0,-0.013362886995,0.01756248698,0.055776074179999996,0.06003516833
430.0,-0.011604490238,0.012928890315,0.058947861915,0.061527553285
431.0,-0.015794017384,0.018718841229999998,0.054422191519999996,0.06113421376
432.0,-0.006936121986,0.01872089134,0.057391396165,0.060813226070000004
433.0,-0.009570166522999999,0.0159692196,0.05672324859,0.059750427354999996
434.0,0.004387337881,0.017477363416,0.059564594119999995,0.06282245296
435.0,-0.0040316451605,0.0163683931045,0.057396452284999996,0.060447073775
436.0,0.005070246809,0.02164879142,0.0570114074,0.06119377539
437.0,0.0013808185435,0.01821286862,0.057438919125,0.060327741525
438.0,0.00543201891145,0.02101430547,0.059224326295,0.063376173465
439.0,0.0068269066055,0.021394338659999998,0.058339711360000004,0.063173574775
440.0,0.0008883597349999999,0.0200372042,0.057905985539999996,0.06146836645
441.0,0.0056960995235,0.022528642600000003,0.058906690635,0.06335008107000001
442.0,0.0079069389255,0.02164845177,0.059012668549999994,0.0635159326
443.0,0.014048941669999999,0.02331434071,0.058859167680000005,0.0649512683
444.0,-0.0060039482625,0.021188082424999997,0.05525263946,0.060227938555
445.0,0.0154415463675,0.023475831345,0.059732334685,0.066314066475
446.0,0.007442158373,0.024174228225,0.05876102044,0.06399087059
447.0,0.004338897712,0.023833172175,0.057413684374999996,0.062339280075
448.0,0.0008530958653000001,0.023640007685,0.055995149859999996,0.060893709039999994
449.0,0.005779790664,0.020904506795,0.06030583762,0.06411731866
450.0,0.0056998428875,0.024218857674999997,0.05919508448,0.064213761025
451.0,-0.00018837063200000006,0.017504547235,0.058180581105000004,0.06092755473
452.0,0.0068511754135,0.024578693605,0.057529912115,0.063375020415
453.0,0.0021845226342,0.02105165312,0.057474730455,0.061278647675
454.0,0.0045023574855,0.021425730174999998,0.05790058546,0.06195419581
455.0,0.0009152110665000001,0.02613606295,0.0574251667,0.06318094112
456.0,-0.000932077704,0.026287692145,0.05581301482,0.061737133565000005
457.0,-0.004194474352,0.02257191486,0.0563382381,0.060837362175
458.0,-0.0041914661885,0.02729214419,0.054929781435,0.061585356120000004
459.0,-0.0053802495580000005,0.02977242057,0.054850895615000006,0.062711508635
460.0,-0.0012784664729999999,0.028180357745,0.05588802543,0.062665261065
461.0,-0.002245806613,0.02723279925,0.05778311375,0.06391836385
462.0,-0.0045164423965,0.0246334181,0.05638021767,0.06180186133
463.0,-0.0060702425014500004,0.02667638222,0.055372593365,0.06214299777
464.0,-0.0064682773765,0.027489964955,0.05541994435,0.06223461623
465.0,-0.0066023204955000005,0.02714549659,0.056455629555,0.062993881325
466.0,-0.006438413582,0.02133429148,0.055801446505,0.06010209398
467.0,-0.008522237993,0.018688163415,0.056784575565,0.06098643042
468.0,-0.0003825727144999998,0.01732022666,0.058512307405,0.061547990705
469.0,0.00015966624909999994,0.01512148583,0.056425504929999995,0.058429261999999996
470.0,-0.004598899602,0.0094654519175,0.058051156995,0.05931350292
471.0,-0.0049486275895,0.006695761295,0.057403807165,0.05803208864
472.0,-0.011278156845,0.008518931734,0.057853509644999995,0.059556683635
473.0,-0.00982091892,0.0035665349835,0.056941452919999996,0.05792526734
474.0,-0.009866259205,0.006727425114,0.056675857485,0.057938167730000004
475.0,-0.01572195045,0.0040708315375,0.05796578765,0.060222520625
476.0,-0.01623389711,0.0017568002424400001,0.057925109375,0.060243982749999994
477.0,-0.017272157675,0.0036931243364999996,0.05516048275,0.05793473692
478.0,-0.0177264892,0.005116211943,0.056941160559999995,0.059962799750000004
479.0,-0.020348223050000003,0.005401098895,0.056488855495000004,0.06032755783
480.0,-0.025535361144999998,-0.0003760203940000001,0.055967209340000004,0.06213310343
481.0,-0.02086391881,0.007082011452,0.05533736676,0.06034544799
482.0,-0.02364299722,0.0066261321335,0.054667086670000004,0.06314304155
483.0,-0.03066649495,0.0048534225955000005,0.054200283955,0.063991332605
484.0,-0.028547449670000002,0.0035573944095,0.05549660593,0.062739456395
485.0,-0.031586147325,0.005285236603,0.055005686314999996,0.06367262500000001
486.0,-0.0344293502,0.003288471217,0.05412259051,0.06447090682500001
487.0,-0.0307739963,0.005200169647,0.05281543399,0.06134778464
488.0,-0.037869070825000004,0.002067985333,0.05396115003,0.06631141046
489.0,-0.032149709995,-0.000533634385,0.054143875524999996,0.06321894578
490.0,-0.04095751138,0.0001849310933,0.05308933591,0.06706541963
491.0,-0.04058306744,0.0026486453765,0.054321086285,0.06796041623999999
492.0,-0.038123563725,0.002379051473,0.052092614950000005,0.06696686368
493.0,-0.038489056265,0.004198978714,0.05358976585,0.066176794005
494.0,-0.037003085295,0.0031194809520000005,0.05306038646,0.06513415288499999
495.0,-0.04079977127,0.0022469187308599998,0.054699768025,0.06836892969
496.0,-0.038897915655000004,0.0028398306975000003,0.0522375571,0.065221113965
497.0,-0.03847841233,0.0071138773425,0.05406233553,0.06673809628499999
498.0,-0.045550090825,0.006201008028,0.052463070455,0.069832572825
499.0,-0.043726999215,0.0058739680983,0.05174017689,0.068298230765
500.0,-0.04117533449,0.0053491331985,0.054244493495000004,0.068573730845
501.0,-0.040065593154999996,0.0100229273185,0.051773597739999996,0.06627856653
502.0,-0.047516826175,0.01081270988,0.052235596565,0.072172450625
503.0,-0.05104622704,0.008832971642,0.051500337859999995,0.073897660765
504.0,-0.043434344635,0.010768481713,0.053159628615,0.06962246589000001
505.0,-0.051019190835,0.009174825952,0.048355539035,0.0709174504
506.0,-0.04548431682,0.0082995694265,0.05396738133,0.07107709382499999
507.0,-0.045322886374999996,0.0063390324146,0.05167401163,0.06939852156500001
508.0,-0.047217516095,0.009928524882,0.050256084765,0.06997643915499999
509.0,-0.04364721768,0.011155140314,0.04991479081,0.06770064645
510.0,-0.045068082485,0.008426656078999999,0.052828905514999996,0.069951182385
511.0,-0.04275369577,0.01099018434,0.05069386924,0.067220817415
512.0,-0.04334124779,0.0093154414565,0.050400081050000003,0.067139912305
513.0,-0.04229176144,0.009501582121,0.04932166531,0.06566201198
514.0,-0.045804087859999995,0.006250783884,0.05089229622,0.06890252184000001
515.0,-0.043735378785,0.0066347840075,0.052623444675,0.06882591469999999
516.0,-0.040696797215,0.005008236227,0.052863960145,0.06693414117
517.0,-0.043993368545,0.00613687783205,0.051363719385,0.068232468395
518.0,-0.038603515510000005,0.0045489661,0.052846951625,0.06562087288
519.0,-0.047056796484999996,-0.00024442794569999994,0.05056673816,0.06908019701
520.0,-0.04804053033,0.007818337844,0.051621581595,0.07276001566
521.0,-0.037217097685,0.006823203365999999,0.053090551215000004,0.0654053014
522.0,-0.043544434235,0.006763762406199999,0.049963615064999994,0.06719328455500001
523.0,-0.045293736285,0.002212273978,0.052208366884999996,0.069274581595
524.0,-0.039456092580000005,0.0072634886715,0.052357516745,0.066144931715
525.0,-0.044198403745,0.0040981944999,0.05221666764,0.06880509406
526.0,-0.037416811630000005,0.005875458564,0.052271470954999996,0.06465659025500001
527.0,-0.037357395030000004,0.0046061054355,0.053441544665,0.065445174535
528.0,-0.037729402630000006,0.0048511854603499995,0.053178918695,0.065570329355
529.0,-0.035785118875,0.0047040291,0.053582817985,0.064639437785
530.0,-0.037979031445,0.002927794031,0.053092076075,0.06536968980999999
531.0,-0.037026906964999995,0.0029014471654999997,0.053601660925,0.065213881035
532.0,-0.038506147904999996,-0.0007694591845399999,0.05422202184,0.066514235985
533.0,-0.038127924775,0.00272746670345,0.05474387437,0.06690378930999999
534.0,-0.03959191423,0.009607302071,0.051562799879999996,0.06579703351999999
535.0,-0.040563788825,0.0022680503960500003,0.053943665710000005,0.06762118352999999
536.0,-0.04012727985,0.0048079160645,0.052736181285,0.06648033429
537.0,-0.03962802365,0.0047896922425,0.053307138965,0.06662087402
538.0,-0.03774823697,0.008329447552,0.05212616191,0.06489565353
539.0,-0.040595982905,0.005028076632,0.05291740484,0.06689798803
540.0,-0.039094538309999996,0.0052852609665,0.05413915189,0.06705715246999999
541.0,-0.039912940694999996,0.009589776191,0.04993671214,0.06464294770000001
542.0,-0.0428998174,0.008792406583500001,0.05262761225,0.06848542663000001
543.0,-0.04056814844,0.010031116291,0.051041904685,0.06602684276000001
544.0,-0.041401756454999994,0.009447979777,0.051888312085,0.06707983535
545.0,-0.041801276065000004,0.009915612284,0.052267590010000003,0.06765798465
546.0,-0.04067745984,0.00927348625,0.051062541919999996,0.06597868259
547.0,-0.039726486175,0.007952006914,0.052811896989999996,0.06665206938000001
548.0,-0.042248497770000004,0.0094477261125,0.051609336840000006,0.06739183463000001
549.0,-0.03938124822,0.007405573146999999,0.053382900535,0.06675001173
550.0,-0.045238950165,0.0016178314170000006,0.052815342264999995,0.07018758158499999
551.0,-0.026694074348000002,0.0090690873685,0.052270685590000004,0.068030626625
552.0,-0.05264712303,-0.0099475154365,0.052260882905,0.0750986894
553.0,-0.03329663561,0.00429527433,0.053223328875,0.06358766506499999
554.0,-0.03808646256500001,-0.0008618939184999999,0.053233744939999994,0.06550344960000001
555.0,-0.036242369705,-0.00183588956635,0.053452470934999996,0.06462973057
556.0,-0.033379797924999996,-0.003411615298,0.053736106755,0.0633718214
557.0,-0.034618258265,-0.0063387486515,0.054818563949999996,0.065180760995
558.0,-0.032511472065000005,-0.0046627961975,0.054782253885,0.06396592243999999
559.0,-0.03233536769,-0.0058385609135,0.054953863935,0.0640967086
560.0,-0.02844136713,-0.004240387893,0.054919869829999995,0.062019429929999995
561.0,-0.0167390449505,-0.001306814004,0.05659092381,0.060163401405
562.0,-0.054346632024999994,-0.01202057409,0.049780064085,0.07608908421
563.0,-0.054780525499999996,-0.01840950131,0.04972693468,0.11301310552499999
564.0,0.08473526385,0.02192761046,0.07827081726,0.1174189332
565.0,-0.101129497925,-0.040650181435,0.03960715855,0.11941279396
566.0,0.07797688719,0.022327139381,0.075759254695,0.11940631631
567.0,-0.09737316633000001,-0.029666747195000003,0.04301407888,0.11190473473000001
568.0,-0.020920874699999998,-0.012981652120000003,0.05333910947,0.084894283535
569.0,-0.009904038235000003,0.006525143698,0.058979224775000005,0.064435175855
570.0,-0.034799580706,-0.012889474634999998,0.054171500750000004,0.07242847408
571.0,-0.031568736095,-0.0067512983785,0.05578452398,0.064620626845
572.0,-0.026423723745000002,-0.0030344985511,0.05394923203,0.060185902275
573.0,-0.031872981915,-0.005424904801,0.055260590525,0.06407867713
574.0,-0.026315624779999998,-0.00500850852135,0.05525642868,0.0616337233
575.0,-0.026951605505,-0.0035899295790000002,0.054901405240000006,0.061567127975
576.0,-0.023886718625,-0.0011309561266,0.055100548794999996,0.06009758089
577.0,-0.02887157889,0.0004302604847,0.05462912563,0.06187274422
578.0,-0.026938562484999998,0.0014514731154,0.0538282004,0.060247416745
579.0,-0.027414045735,0.0035117803955,0.052530582859999994,0.059439256610000005
580.0,-0.02808857079,-0.0007086366765,0.054271780500000005,0.06121743328
581.0,-0.03150799814,0.00019184886500000012,0.054187167845,0.06304526054
582.0,-0.030983643345,0.00197723597265,0.053759604535000005,0.062098212585
583.0,-0.032217756965,0.0012947813510999998,0.054455451860000004,0.063306125765
584.0,-0.03503666524,0.0011980292794999997,0.053295725429999996,0.06390254465
585.0,-0.035129408094999995,0.0035474942714999996,0.052975533045,0.0637223694
586.0,-0.03588896714,0.002968746755,0.050887188505,0.062359037024999994
587.0,-0.03873446305,0.0007698833945,0.052780516935,0.0655445718
588.0,-0.039607399315,-0.002660931695,0.054139209215,0.067151509495
589.0,-0.04123204532,-0.002640619786,0.0539266228,0.0679347855
590.0,-0.042264061680000006,-0.00207784821,0.052338954699999996,0.06730670016500001
591.0,-0.04465513578,-0.0009384050219499999,0.052149390265,0.06867732696500001
592.0,-0.043936469980000004,-0.0029568524,0.051579533235,0.06798373238
593.0,-0.047932385499999994,-0.0033992788195999998,0.052385279555,0.07118208282999999
594.0,-0.05142705849,-0.007127241383,0.051856949225000004,0.073402696785
595.0,-0.046364814340000005,-0.000806963053485,0.050703006945000004,0.06878854101500001
596.0,-0.053301053845,-0.0037758696035000002,0.05116843385,0.074045429065
597.0,-0.05046225501,-0.0010491538662499998,0.05032416469500001,0.07132310487499999
598.0,-0.05459100981,-0.0019188440724499998,0.048905916810000005,0.07333051732000001
599.0,-0.0497675198,0.00045231365949999994,0.049488425605,0.07025202830999999
600.0,-0.050950087635,0.0008905194790000002,0.04951550624,0.071189534365
601.0,-0.047757168239999995,0.00020583775550000018,0.049973991004999996,0.06923125337
602.0,-0.048375987095,0.0026381146554500003,0.051209524865,0.070567334965
603.0,-0.04634315671,0.0033297564285,0.05011427832,0.06853878025499999
604.0,-0.043889574735,0.003982399566,0.050354226265,0.06692180818
605.0,-0.043174695294999996,0.00360607678,0.050977900605,0.067004387585
606.0,-0.040837775305000004,0.004946735843,0.051170067629999996,0.06567390374
607.0,-0.040406037255,0.0040799276839999996,0.050973004995,0.06519011294499999
608.0,-0.037362942725,0.0014017853975,0.052884419665,0.06478554040000001
609.0,-0.034823084219999995,0.0046100680705,0.051470505595,0.06233727275
610.0,-0.03224229664,0.0047353876605,0.053888105695,0.06298182412
611.0,-0.03067563123,0.0033331651545,0.053258544015,0.0615532776
612.0,-0.029279396385,0.0054759095760000005,0.05331291739,0.06109240237
613.0,-0.022417085465,0.00888047812,0.052685849369999996,0.058001840325
614.0,-0.024351631035,0.006384682256499999,0.05406855536,0.05972376711
615.0,-0.01820983753,0.0108945451,0.05354602638,0.05759744992
616.0,-0.018763941465,0.0084899378555,0.05557593316,0.059353634965
617.0,-0.014283887955,0.0094969380295,0.053721540305,0.056471762135
618.0,-0.009308989454000001,0.01200305394,0.05689408474,0.05890956466
619.0,-0.006467024811,0.013579094965,0.057230150595,0.05920980594
620.0,-0.004893345605,0.013157815975,0.0560013009,0.05777491615
621.0,-0.0035046634167000003,0.010897339728,0.057092282425,0.058321460869999994
622.0,-0.0018044378522700001,0.011914905730000001,0.056581029405,0.057883243495
623.0,0.00026013517199999984,0.014051534934999999,0.055743186454999996,0.05753566603
624.0,-0.000391726187,0.01319967014,0.056391986625,0.057994005485
625.0,0.000139613739,0.01346756004,0.0557150281,0.057356345555
626.0,0.0004821817533,0.012559096205,0.056883811985,0.05827520599
627.0,0.000126969135,0.009973636580999999,0.05672776585,0.057641233705
628.0,-0.00101753160795,0.0096436845105,0.055440369475,0.056353364680000004
629.0,-0.00026164570250000003,0.00955232893,0.05597090111,0.05695252508
630.0,0.0009746305295,0.0123137675285,0.057971164795,0.059474774565
631.0,-0.000747266994615,0.009029208785499999,0.057058620805,0.057783631604999997
632.0,-0.0005110695781,0.008132198611,0.057026346465,0.057620569940000005
633.0,-0.005202693409,0.0043114494770000004,0.057267549845,0.057683069195
634.0,-0.00196136966775,0.00836459677,0.05820920953,0.058891492085
635.0,-0.0028017707695,0.007994316823,0.058687603495000004,0.059335828105
636.0,0.00024489801594999996,0.007739016352,0.05790653013,0.05843087293
637.0,0.00025362154559999996,0.0046118688124999994,0.058975894155,0.059169878355
638.0,0.0027218229934999998,0.0055821132135,0.05928512014,0.059613066199999995
639.0,-0.004400379465,0.00679137187,0.057131361315000004,0.0599255031
640.0,0.001828054584,0.006414988891,0.05962915999,0.06000108822
641.0,-0.0005982719150000003,0.0137221898,0.056355097575,0.058999446665
642.0,-0.0011502720019,0.004488519075,0.058492593115,0.058718229335
643.0,0.00190958741395,0.009993476274000001,0.057023078904999996,0.057967571435000004
644.0,-0.000537862151,0.0088403551855,0.059030531225,0.05999633555
645.0,-0.0050107671539999996,0.0110136233635,0.05464865074,0.056130353755
646.0,0.00461958556045,0.009658677315,0.059981523525,0.061172528239999996
647.0,-0.01293165914245,0.007345989592,0.055014485805,0.05872974909
648.0,-0.0021432008785000007,0.013646207525,0.057274377325,0.059971011335000005
649.0,-0.0105146165315,0.009557907431,0.053940765035000005,0.056331098760000003
650.0,0.005188486680750001,0.0131731892775,0.058979482735000005,0.061290920830000005
651.0,-0.0055510613455,0.0089698824785,0.057847387264999994,0.058885914435
652.0,0.0022438016489,0.01225722151,0.05987081624,0.061170855979999994
653.0,-0.00897849852,0.011013015709500001,0.056049471635,0.05811306166
654.0,-0.0051511848845,0.012846259695,0.056861884924999995,0.058609996824999996
655.0,-0.013279127065,0.010416612611,0.05410351827,0.056708061545
656.0,0.007821178335000002,0.01396666576,0.05969592717,0.09565507887
657.0,-0.0006068664650000014,0.028151965765000002,0.04969410428,0.14035510065
658.0,-0.0069587742145,-0.0064177749150000005,0.060456048005,0.06554329589999999
659.0,-0.00665342344275,0.005771058533,0.061006603485000005,0.064147415955
660.0,-0.005114585325,0.001404135749,0.060512336055,0.063239712255
661.0,-0.009424943468620502,0.0095299009885,0.055299835660000005,0.057712650850000005
662.0,-0.0371345015,-0.040587672125,0.044332757855,0.1952194401
663.0,0.0721031871,0.004825947849999998,0.08007026922499999,0.20702569580000002
664.0,-0.0226685300685,-0.035491177335,0.061781227715,0.079871427545
665.0,0.009422419700000004,0.032066508985,0.05676733201,0.14290000749999998
666.0,-0.007564399575,-0.01943186547,0.05831585242,0.06193186725
667.0,-0.010150995677,-0.0022582921386,0.060472248235,0.06397666114
668.0,-0.0030280924105,0.006159651875499999,0.057344389135,0.05790285801
669.0,0.00595679792,0.0085084898685,0.059600445575,0.0605616283
670.0,0.0011405610380000003,0.005538995731,0.058810687380000004,0.060075796415
671.0,0.003542789269,0.007578685124455,0.059975332355,0.061063419519999995
672.0,-0.007415264049,0.007442680036,0.055255230579999995,0.056632477885000004
673.0,0.0096944714485,0.012383260537,0.061049299625,0.063377378845
674.0,0.0005367629319999999,0.00708777840955,0.05946511693,0.060311995795000004
675.0,0.006892269302,0.012475819955,0.06035776892,0.062077001905
676.0,-0.00264445773825,0.011674646791,0.058088458795,0.059976174874999996
677.0,0.0021900860879999996,0.011926323563999999,0.05984356363,0.0612319538
678.0,-0.0035389742475,0.012658940989999999,0.058067322830000004,0.059657618164999995
679.0,-0.0004028860570000001,0.012727394975,0.05915446353,0.060773705275
680.0,0.0005850769845,0.011140821799999999,0.058984189175,0.06004291375
681.0,0.001231012305,0.013656620728500001,0.058071157915,0.060198771345
682.0,-0.0009555468224999998,0.006702967127500001,0.060137816159999996,0.06073265038
683.0,0.0039803573405,0.011956743416,0.057009624575,0.060051015495
684.0,-0.00434288041,0.008713113752,0.059733257625,0.06912383767
685.0,-0.004891486823,0.017773255459999998,0.057943178415000005,0.062165288685
686.0,-0.003190345478,0.010531797028,0.05870340817,0.060753348585
687.0,0.0005247646749999997,0.011367192165999998,0.05798333503,0.05974531795
688.0,-0.00046099562850000005,0.012092401689500001,0.059030622945,0.060604326015
689.0,0.002068238999,0.0131998801,0.059728362014999994,0.06130077965
690.0,-0.0003959955140000001,0.013104544686500002,0.058500767755,0.060108086705
691.0,0.0004490074035000001,0.0128740182105,0.057589656905,0.059510872675
692.0,0.004052163441,0.006243705601,0.06279586294,0.06323546703
693.0,-0.004018785585,0.01319641046,0.05647527505,0.058482207689999996
694.0,-0.0020002364545,0.01073108246,0.058011923325,0.059177213355
695.0,0.005908470969,0.009777540606,0.059681945444999995,0.060815129855
696.0,-0.0041726734095,0.005985922213,0.059595962710000006,0.06008423358
697.0,-0.00020162288755,0.007857084248,0.060207879565,0.060738818815
698.0,-0.00050312854366,0.007330185627499999,0.05906311512,0.059606178835
699.0,-0.0017106416335,0.006983490165499999,0.059346710809999995,0.059818337205
700.0,-0.0069195133125,0.0039570816955,0.059147389545,0.05985661128
701.0,-0.0001999876738,0.007142471373,0.059331811875,0.059902859115
702.0,-0.0027066259660000003,0.001728052865,0.061072103764999996,0.06155334051
703.0,-0.0023530571599999998,0.0040727060855,0.05947631263,0.05999097902
704.0,-0.0058957117135,0.0045879461045,0.060271597015,0.06079337991
705.0,-0.0039417098245,0.005028816132500001,0.060815623105,0.061166355160000005
706.0,-0.0024424020418000003,0.006233223606500001,0.058878297245,0.059324909215
707.0,-0.007942711562,0.0077423312085,0.057028020375,0.058177975310000005
708.0,-0.0059912878936,0.010410495967,0.05851935273,0.06005330176
709.0,-0.011065848455,0.0077271169815,0.059624654195,0.061141797325
710.0,-0.005850107729000001,0.008239237050775,0.058919537315,0.061528189564999995
711.0,-0.014669229499999999,0.008293791,0.057399209650000005,0.05988897495
712.0,-0.013093996765000001,0.0071734186215,0.057644225179999994,0.059648819054999996
713.0,-0.01787774864,0.009209330257,0.05629030813,0.059991089455
714.0,-0.013924909045,0.011051651762999999,0.05771631218,0.06046167287
715.0,9.208218149999998e-05,0.018402057575,0.059749188425,0.06261299376
716.0,-0.049331956695,-0.0009529600031,0.050214414755,0.07101628918
717.0,-0.04545403885,-0.003892964396,0.05229217698,0.06939522024
718.0,0.0458516208485,0.029081314788000003,0.07023311424,0.09916674272
719.0,-0.039748752894999996,-0.003686662300000001,0.052438277115,0.12140898527
720.0,-0.047017999941499994,0.0045071570750000005,0.049067202505000004,0.08680033213
721.0,-0.030325585080000002,-0.00566391834,0.054333537409999993,0.062521548855
722.0,0.049793789255,0.021229859920000003,0.069200180665,0.169331482
723.0,-0.08587819102500001,-0.0188723614535,0.044182656390000005,0.10435300681
724.0,0.055023358365000004,0.02920352518055,0.06456198003500001,0.11679150942
725.0,0.0037789386749999994,0.00625381211,0.065551128285,0.078470959065
726.0,-0.04283195172,-0.005581740595000001,0.051919984505,0.071385689815
727.0,0.0102158109135,0.014940480115,0.060483891070000004,0.06357844494499999
728.0,-0.030462321075,0.0006306644849999998,0.056156297975,0.07687158254
729.0,-0.02187944975,0.0032355596474999996,0.056286513175,0.061547276595000006
730.0,-0.0061707013929999995,0.01603547013,0.05708783395,0.060378914369999995
731.0,-0.016734751265,0.008656291142,0.058902626245,0.06191432248
732.0,-0.013366468416,0.0090601073065,0.057228000885,0.061887795085
733.0,-0.013096112082,0.004492276771,0.05693760064,0.05970872189
734.0,-0.02020333392,0.0095922540915,0.05717557658,0.06149032392
735.0,-0.01499502976,0.0085501025545,0.057900499475,0.060527817725
736.0,-0.01611043201,0.006388318135500001,0.057235470415,0.05984596525
737.0,-0.01745216879,0.006418207726,0.057112615830000005,0.060120454840000004
738.0,-0.014716252289999999,0.010531533332,0.056876359655,0.0596950137
739.0,-0.01574134945,0.010533320457,0.05791354679,0.06101331963
740.0,-0.016050244380000002,0.013503407915,0.055824009885,0.059709590265
741.0,-0.020988206534999998,0.0091309102115,0.056775999645,0.06153628793
742.0,-0.018934814878,0.01473037303,0.057215360575,0.06748790779
743.0,-0.005512322109,0.01762686153,0.05746424559,0.06035918707
744.0,-0.014266635800500001,0.01311402921,0.05591102448,0.062419632105
745.0,-0.0126100379205,0.0139989465418,0.058077331885,0.06395359596
746.0,-0.016331141469999998,0.01962107879,0.055113114575,0.060873103505
747.0,-0.019064590105,0.016979290995,0.05521635806,0.061124967455
748.0,-0.015101767240000001,0.017633885355,0.056911437215,0.06150269071
749.0,-0.0138417037365,0.01862654766,0.0562025827,0.061159030865
750.0,-0.016085989784999997,0.01450015038,0.057193307405,0.06131430242
751.0,-0.017018001565,0.01529435131,0.057447437715,0.062084671395
752.0,-0.0036817165350000007,0.021173386995,0.05716263245,0.07108810557
753.0,-0.0207990577065,0.014818524104,0.05646814374,0.063234180995
754.0,-0.01401179609,0.01518293749,0.05815276097,0.06176782335
755.0,-0.009939455451000001,0.016964743175,0.057775655684999996,0.061326856265
756.0,-0.009874466800500002,0.01563829657,0.057515076245000005,0.060436761650000004
757.0,-0.0124907934125,0.014128115548,0.058017707485,0.062187381665
758.0,-0.010305147199000001,0.014815252245,0.057345478325,0.060149625235000004
759.0,-0.011475987640000001,0.01591655238,0.057643892695000004,0.06089513947
760.0,-0.011564534261,0.01494207233,0.05815641261,0.061242581635
761.0,-0.0097724830485,0.014029372128,0.058144357029999996,0.06078628063
762.0,-0.01389775388581,0.0141714738,0.05656908847,0.061635011875
763.0,-0.01656582979,0.009614850425500001,0.057284134155,0.060932790795
764.0,-0.0085289694545,0.0165455393775,0.05676013764,0.060621336415000004
765.0,-0.0123763728645,0.009077882555,0.057591783684999995,0.060194107585
766.0,-0.01982341108,0.0156105509645,0.055961442380000004,0.061788515975
767.0,-0.016266072565,0.014197910955,0.05572260655,0.060033753100000004
768.0,-0.01318850096,0.01155906253,0.05863593589,0.06120229948
769.0,-0.015056581740000002,0.012432326990499998,0.058203001165000004,0.06151122347
770.0,-0.014790189475,0.013942370435,0.05715562726,0.060842972849999996
771.0,-0.0106220347555,0.01506380907,0.059071605045,0.06251754011999999
772.0,-0.01917583195,0.011982918305,0.05493073304,0.05964483837
773.0,-0.026694726425,0.011798104734,0.05401969671,0.062021299939999996
774.0,-0.012116836745000002,0.015018619265,0.05554387093,0.05955250048
775.0,-0.009602405032000001,0.01551039303,0.05862718226,0.06154163729
776.0,-0.022219171545,0.014901252173,0.054677393825000004,0.06124476646
777.0,-0.01738938718,0.0087387053535,0.05769713102,0.061030887645000004
778.0,-0.020599285005000002,0.009395683025,0.05753584532,0.061869071505
779.0,-0.020604533165,0.009262602977999999,0.05645785952,0.060834751485000005
780.0,-0.0216094646,0.009139269719999999,0.05550694748,0.060346484975
781.0,-0.019111162884999998,0.009667696070500002,0.05627939333,0.06024135096
782.0,-0.02074455965,0.012958738345,0.055050618155,0.060246298085
783.0,-0.02265700618,0.008193197395,0.056416350025000006,0.061363969155
784.0,-0.01715992983,0.010319461413,0.05600695894,0.059553881074999995
785.0,-0.02450124236,0.0093784896325,0.055532870135,0.06148379325
786.0,-0.021019761435,0.013261315990000001,0.056396566945000004,0.06231567776
787.0,-0.01548002477,0.013022620605,0.056063642535,0.05962079974
788.0,-0.022024571049999997,0.007256090801,0.056619666885,0.062179019885
789.0,-0.017524927935,0.0079450948755,0.058096312405,0.061206519485
790.0,-0.010409143081000001,0.01846185969,0.055034360605,0.059101618499999994
791.0,-0.0151977948605,0.010629798081000001,0.05710082394,0.06114651259
792.0,-0.014006244099999999,0.015489576655,0.055758933809999994,0.059612434209999995
793.0,-0.013264789925,0.012426542831999999,0.056651339305,0.059604011799999995
794.0,-0.01350557196,0.02651359459,0.05574531324,0.06318948583
795.0,-0.014906372785,0.013127854725,0.056886448965,0.06026625874
796.0,-0.01373512533,0.014254405375000001,0.05592326923,0.05932837672
797.0,-0.018385372945,0.01643521904,0.054782328415,0.06010075663
798.0,-0.01829570704,0.017686829879999998,0.055943046585,0.06152653912
799.0,-0.017160636365,0.016215346535,0.05622468747,0.06098953923
800.0,-0.018912767435,0.01616107348,0.0548202092,0.06040875341
801.0,-0.01583593246,0.013490116965,0.056701476315,0.06039921517
802.0,-0.017106116815,0.01581392801,0.056845742025,0.061553604935
803.0,-0.016708715385,0.015053308445,0.05701920369,0.06132255972
804.0,-0.015342769985,0.01570941907,0.056006196509999995,0.06015770376
805.0,-0.016170401799999998,0.015400885284999999,0.055924925944999995,0.06030012838
806.0,-0.01274495239,0.015023701185,0.057752553455,0.061061516625
807.0,-0.009011480831999999,0.017697698825,0.055473113885,0.059027871355
808.0,-0.0071855114665,0.013258764999999999,0.05913246768,0.06114150047
809.0,-0.003646101544,0.014882988225000001,0.057944296265,0.06003149566
810.0,-0.00309171241,0.015683681285,0.058236983805,0.060406963585
811.0,-0.001454745693,0.01741177428,0.057883662929999996,0.060496913585
812.0,0.0012547508539999998,0.01928750803,0.059359609085,0.06249355887
813.0,0.0005150895389999998,0.019914184805,0.056965111215,0.060525375719999996
814.0,0.0020229947345,0.01958978042,0.05956177943,0.06311512431499999
815.0,0.0058246680434999995,0.023538845125,0.058911150575,0.06376628444
816.0,0.0053986969505,0.02697565791,0.05724983622,0.063521315035
817.0,0.011390378955,0.022499508275,0.060049769705,0.065296477755
818.0,0.011083266855,0.02639177473,0.05816201333,0.06502077420499999
819.0,0.01417837724,0.03166146032,0.06071209872,0.06992448343
820.0,0.014170616785,0.025713679725,0.05921854787,0.066144984965
821.0,0.015080466470000001,0.029515367365000003,0.0587417361,0.06749393956
822.0,0.018047011199999997,0.02977300887,0.060328951320000004,0.069980926705
823.0,0.01769619546,0.029154943845,0.059082130035,0.06831617052
824.0,0.02201444161,0.027589307425,0.060179411645,0.07004989937
825.0,0.02494061189,0.027846378545,0.06175565474,0.07227683159500001
826.0,0.008764089151,0.027140522165,0.05554964362,0.063253914025
827.0,0.04313432228,0.030643871385,0.065055152545,0.085161384875
828.0,0.018592183805,0.024063793955,0.05955880996,0.06704351039
829.0,-0.00616703972,0.0106445744835,0.057720600134999994,0.06273905494
830.0,0.12074700103750001,0.0366614337735,0.07871716616999999,0.164678839055
831.0,0.08889567387,-0.005003512595000002,0.06555660288000001,0.1300585489
832.0,-0.088157594745,-0.006365840749999999,0.04635056892,0.112315816135
833.0,0.081534879215,0.03673634334,0.07510443533,0.1170875116
834.0,0.027039639060000002,0.021572261691,0.06120872224,0.08622787167
835.0,0.01191838253,0.024749297585,0.057648295305,0.07126526999499999
836.0,0.036991449620000005,0.02272974096,0.062666192335,0.07684468802
837.0,0.032542936679999995,0.02572175404,0.064411551815,0.0767512626
838.0,0.03340065299,0.024892926985,0.064044203355,0.076487991245
839.0,0.032357363535,0.023246594695,0.063807574565,0.075274676365
840.0,0.033474260549999996,0.023969648769999997,0.06469302072,0.0766891669
841.0,0.036320573345,0.026022749499999998,0.064899851645,0.07902447533
842.0,0.03213261692,0.02498751717,0.06272972061,0.07487568166
843.0,0.02964764199,0.02341923517,0.062885159095,0.073502009445
844.0,0.03133462246,0.02587278275,0.06250963600500001,0.07457459315000001
845.0,0.03103272986,0.0243819606,0.0627201587,0.07410349946
846.0,0.031074207830000002,0.025968507975,0.062945780965,0.07488624429499999
847.0,0.03357741375,0.025698304985000003,0.06336596647,0.07624278168
848.0,0.029337392735000002,0.02366057613,0.06153957146,0.07216903990500001
849.0,0.028349456930000003,0.023528453419999998,0.060797920945,0.07109079346
850.0,0.022206534105000002,0.023454067665,0.061553828350000006,0.06957955458
851.0,0.021577496955,0.023403211219999998,0.06238993432500001,0.07006982731
852.0,0.017930307654999998,0.02362132813,0.061630260625,0.068643608735
853.0,0.017620299173499998,0.022826804739999998,0.060158109439999996,0.0673073622
854.0,0.01511477873,0.02193692014,0.059521015159999996,0.06542944013
855.0,0.005202027,0.01863249233,0.060127033205,0.065463258065
856.0,0.011465259145500001,0.023177452799999998,0.06039159105,0.065966213905
857.0,0.0086149693875,0.020402354220000002,0.060582256145,0.065193463645
858.0,0.0046068879305000004,0.018838414640000002,0.058686158885000006,0.06191439635
859.0,0.0022843007835,0.017310656145,0.058112220275,0.06079075506
860.0,0.0011738471730500001,0.01542059384,0.05975815415,0.061748117729999996
861.0,-0.002518867285,0.017316430270000002,0.05649815945,0.05918729961
862.0,-0.00218760675375,0.02021730274,0.05828821,0.06175779099
863.0,-0.0048018137495000005,0.017255266669999998,0.058457188800000004,0.061162339515
864.0,-0.0056400379099999995,0.014810654730000001,0.05933488453,0.061474481095000005
865.0,-0.0063632496314999995,0.01832288656,0.0555197139,0.058855658985
866.0,-0.008179105317500001,0.014971721155,0.057098175495,0.059630850799999996
867.0,-0.00503003287,0.013495418155,0.058533466305000004,0.060346976235
868.0,-0.004240926754,0.0105539963845,0.058803435685,0.05991891381
869.0,-0.005307812875,0.0088832662955,0.05883132461,0.05985869589
870.0,-0.0076278160685,0.0064591038405,0.05882823476,0.059776021900000004
871.0,-0.005925565476,0.00497776908,0.05991824175,0.0604159433
872.0,-0.008623791803500001,0.0061184648335,0.05944372873,0.060450074895
873.0,-0.0089468361345,0.005165953404,0.060014904245,0.061011634145
874.0,-0.013071292945,0.006951281752999999,0.058106034835,0.0599775597
875.0,-0.013889541985,-0.000790827318,0.059087329470000005,0.060748858190000005
876.0,-0.023169312560000002,-0.0014636412000000004,0.056783956445000006,0.061926677135
877.0,-0.0138504530625,0.0055405349239999995,0.05802024701,0.06064608398
878.0,-0.016952118635,0.0019538600085,0.05824910818,0.060848619395
879.0,-0.019005809819999997,0.00047483833850000016,0.057325735375,0.060675069375
880.0,-0.01925411155,-0.00148082599475,0.05879005588,0.06210225441
881.0,-0.018195908825,-0.002228210507,0.059350586025,0.062653298595
882.0,-0.022024290155,-0.00424050971,0.05669055578,0.061147748315
883.0,-0.021288941159999998,-0.00044917078149999973,0.058139719385,0.062283566570000004
884.0,-0.022074480185999997,0.00141108505,0.058065660385,0.06369496692
885.0,-0.025366584419999998,-0.0062041896015,0.057148249445,0.06316623638499999
886.0,-0.01934902275,0.001955356208,0.05856048961,0.062225339170000005
887.0,-0.018482105675,-0.0014892428325,0.058238107385,0.061167057175
888.0,-0.027160224985000002,-0.00018824738175000002,0.055179979205,0.062208930815
889.0,-0.024596867270000003,-0.0007348832223,0.058142069739999996,0.064372198185
890.0,-0.021785758155,-0.00167109553844,0.056036344065,0.060198192285
891.0,-0.026781276685,-0.001624446796,0.05722856841,0.06322486833
892.0,-0.02421058845,-0.00149611904335,0.057008277425000004,0.062071554165
893.0,-0.022125716415,0.002507227313,0.056759793690000004,0.061194968125
894.0,-0.026362509989999998,-0.0014954440339,0.055494662594999994,0.061524273475
895.0,-0.0189349066,0.0031567999455,0.05753947977,0.06074362237
896.0,-0.02063591036,0.001070765634,0.05671440324,0.06036150156
897.0,-0.02497126821,0.0005798116235000003,0.055873063435,0.06141839984
898.0,-0.016196813155,0.0017341078865,0.05545620282,0.057817508835
899.0,-0.023350877205000002,0.0039920618035,0.057659491005,0.062426599245000006
900.0,-0.019295325815,0.0014042919609999998,0.05791553599,0.061427077675
901.0,-0.014883534250999999,0.0017978726325,0.057063430425000006,0.06260491673
902.0,-0.0147771249575,0.01266869065,0.057926703025,0.06148259934
903.0,-0.020853871055,0.00365052421735,0.056262327485,0.060299768525000005
904.0,-0.01370263459,0.0013414157622,0.058315852424999995,0.059985866485
905.0,-0.014445840065,0.0056546817455,0.057528519104999995,0.05964106634
906.0,-0.013184101215,0.0072967490115,0.057923034185,0.059857281575000004
907.0,-0.013160454385,0.007765777394,0.056954483040000004,0.059267824505
908.0,-0.01444533703,0.008693895331,0.057290061625,0.059787720015000004
909.0,-0.0135420955575,0.009571172584,0.0578113409,0.061336770070000005
910.0,-0.019023403063,0.0092746986895,0.05488510756,0.060657471945
911.0,-0.0024688793236099997,0.0123587910895,0.057989669514999995,0.059611607644999995
912.0,-0.030955156797999997,-0.0016138802499999997,0.054521920944999996,0.07069624431
913.0,-0.0026741065630000002,0.02683926157,0.05890072877,0.06572965882000001
914.0,-0.026782106471500002,0.0087340634093,0.054574643335,0.065122644935
915.0,-0.02501006334,0.01128539277,0.05437288,0.061045824309999996
916.0,-0.001582275184999999,0.01918746762,0.059011441785,0.081819698635
917.0,-0.012989645462,0.01429780232,0.05690773971,0.06317731989
918.0,-0.065945028545,0.00021056425500000017,0.046189913799999996,0.083385667075
919.0,0.018237938555,0.0261460598265,0.06241130533,0.080407443665
920.0,-0.021456151465,0.01700915192,0.0551198618,0.06158761994
921.0,-0.017905756515,0.021051237515,0.05390757922,0.060690272915
922.0,-0.01902664769,0.01757526558,0.05817833967,0.06368376944
923.0,-0.020591723755,0.01807687929,0.055673123054999996,0.062134949095
924.0,-0.01846079916,0.018189615904999998,0.05493846627,0.060824599645
925.0,-0.01901065097,0.01685544467,0.05564489591,0.061267568205
926.0,-0.014431204829999999,0.02284377026,0.057386024755,0.06359678361
927.0,-0.025443763364999997,0.01299853094,0.052064674425,0.059466774895000005
928.0,-0.010593393433999999,0.01952023868,0.05638408715,0.061324495605
929.0,-0.020322446575,0.022584593860000002,0.0528933854,0.061277305245
930.0,-0.024103661795000002,0.02198305725,0.052534343425000005,0.06204566902
931.0,-0.01220684804,0.02436870404,0.05539362615,0.061762601784999996
932.0,-0.02056944844,0.023994238605000003,0.054314877920000004,0.06284732454
933.0,-0.015756830240000002,0.02492452632,0.055933496124999996,0.06336396427499999
934.0,-0.016856091015,0.02401740676,0.054684186915,0.06211845462
935.0,-0.014837481695,0.023435754985,0.054671277175,0.061308964685
936.0,-0.01493905987,0.023848327645,0.053452671575,0.060567069735
937.0,-0.040435038295,0.027249211580000002,0.04748819058,0.0696971067
938.0,0.0181454636962,0.027701841965,0.06307250503,0.073387661495
939.0,-0.02663451587,0.02003933672,0.053743025955,0.063443025935
940.0,-0.0280194403645,0.0157085405525,0.052020768715,0.071457641835
941.0,0.00014774967999999986,0.03224064566,0.057679549245,0.067122532185
942.0,-0.021698044185,0.0288389563,0.05190050525,0.064008458765
943.0,-0.020269080695,0.0196187872,0.054400803325,0.061946276365
944.0,-0.017557877280000002,0.01955311064,0.054755821035,0.06081388271
945.0,-0.01982634902,0.02546807374,0.053647894055,0.062725976715
946.0,-0.013894707025,0.02400682875,0.055083695055,0.06188114582
947.0,-0.01856516193,0.02525320433,0.05476710845,0.06310170944
948.0,-0.016282864675,0.02234859995,0.054375121435,0.061093379815
949.0,-0.0122241933445,0.02525476788,0.054949925664999996,0.062048865689999996
950.0,-0.015225357030000001,0.025480898915,0.053856129455,0.061865894345000005
951.0,-0.01620895186,0.028371199110000002,0.05304066071,0.06233356895
952.0,-0.017809062485,0.02260170557,0.055191444335,0.062248509475
953.0,-0.014612180449999998,0.025643923015,0.055380687750000004,0.06312058026
954.0,-0.012695858705,0.022485532279999998,0.05497676553,0.060922272570000005
955.0,-0.017033992555000002,0.016647874245,0.057171626845000004,0.062021489310000004
956.0,-0.016069007065,0.022441070515,0.05260624698,0.059560547660000004
957.0,-0.01881645319,0.021222472075,0.05525353947,0.062179097555
958.0,-0.017770978195000002,0.022381771435000003,0.054401663205,0.061686785790000004
959.0,-0.013930820745,0.017144066385,0.05653973774,0.060753159625
960.0,-0.018904986909999998,0.02044045141,0.05580187072,0.06240691055
961.0,-0.01491515651,0.021273405915,0.05517416065,0.061098284515000004
962.0,-0.01691812023,0.023071050675000003,0.054680242909999996,0.061769125145
963.0,-0.020524763100000003,0.021764766935,0.0538023752,0.06182837116
964.0,-0.018914791030000003,0.02252117737,0.05357624273,0.06121562463
965.0,-0.022370435285,0.02036362215,0.05395472956,0.06185819193
966.0,-0.020652635114999998,0.021115538255,0.054568927975,0.062089538005
967.0,-0.02417383268,0.01948805463,0.052390719759999996,0.060916800184999995
968.0,-0.022731410565,0.02089344151,0.05357735485,0.06186393175
969.0,-0.026157656799999998,0.02108372109,0.053454890075,0.063576868525
970.0,-0.02707671872,0.019432109099999997,0.053092339775,0.062775403575
971.0,-0.0227309362,0.021460632894999998,0.053716684825,0.06227646596
972.0,-0.025985848979999997,0.021849815255000002,0.053108488405,0.063081629685
973.0,-0.02444132417,0.02461750593,0.05325587837,0.06355775725
974.0,-0.027471824255,0.020427194855,0.05269564059,0.062850070925
975.0,-0.02991427932,0.0182962502,0.052649149495000006,0.06327104307
976.0,-0.02794643042,0.02261569302,0.05260798968,0.06374675525500001
977.0,-0.031338282705,0.019986678815,0.051392451000000006,0.06347846492
978.0,-0.030793084305000003,0.02008783708,0.05270411905,0.06433582103499999
979.0,-0.038398005945,0.018674860279999997,0.05265456103,0.067803822535
980.0,-0.036799248199999995,0.02078303519,0.051293168715000004,0.06659370335
981.0,-0.03923744971,0.019300326045,0.051157232415000004,0.067379951005
982.0,-0.040270394745,0.018844274755,0.051028180925,0.06778439313000001
983.0,-0.04020715023,0.019484566364999997,0.051283807439999995,0.06803089768000001
984.0,-0.040155807955,0.017263601820000002,0.05195252827,0.067908013515
985.0,-0.041938204095,0.01535040576,0.05256290306,0.069015795505
986.0,-0.035485762925,0.02024919443,0.051551684434999995,0.066063937425
987.0,-0.04517675614,0.021558765799999997,0.051545510465,0.07195279563
988.0,-0.03961432282,0.018295444775000003,0.05157187453,0.067564584605
989.0,-0.04265005387,0.017948686255,0.05050414429,0.06850501754499999
990.0,-0.04324819824,0.019328561795,0.051184141074999995,0.06974687663000001
991.0,-0.043033813229999995,0.020105027605,0.04974122023,0.06879077521999999
992.0,-0.045905901065000004,0.016486756225,0.050002200955,0.069896915275
993.0,-0.045927676210000004,0.018289541665,0.0498656742,0.070266919285
994.0,-0.047015590815,0.020280785160000002,0.050194408105000005,0.07170372613
995.0,-0.048931413825,0.01768234272,0.04958218743,0.07193914457
996.0,-0.04914538179,0.02009246612,0.05002988924,0.07297816217
997.0,-0.051871303565,0.018707309465,0.050193582614999996,0.074569723585
998.0,-0.05249846617,0.01790990689,0.04845244804,0.07365116045
999.0,-0.053871747824999996,0.015258091405,0.048918264754999996,0.07450199468
1000.0,-0.053895728574999996,0.018767317945,0.049719212915,0.075832180485
1001.0,-0.05626366174,0.017465429650000003,0.048224802175,0.076167891115
1002.0,-0.05823507916,0.017096133555,0.04864839282,0.07791514047
1003.0,-0.058213844305,0.019289647714999997,0.046950539105,0.077273563145
1004.0,-0.0610425352,0.019725560505,0.048788892240000006,0.080610253685
1005.0,-0.065446693855,0.020845809635,0.04602228789,0.08272200692500001
1006.0,-0.06476038695,0.022485295815,0.04666095862,0.08295471811499999
1007.0,-0.069072003395,0.02363224293,0.04661976441,0.08662070527
1008.0,-0.068041855845,0.02381943982,0.045672945415,0.085343151075
1009.0,-0.065515064715,0.030887759040000004,0.043925350234999994,0.087818020035
1010.0,-0.068124100945,0.020358309498,0.047974719055000004,0.08678719778999999
1011.0,-0.03938302531,0.030206065415,0.04893938352,0.06979885901499999
1012.0,-0.079164192985,0.02474513575,0.042045980605,0.09388189309
1013.0,-0.06596277513,0.030714619829999998,0.044075428774999995,0.08534574455999999
1014.0,-0.061976278215,0.026320240925000002,0.04575423318,0.08149063923
1015.0,-0.0679430078,0.027725874310000002,0.04263134422,0.085228304775
1016.0,-0.05552611574,0.032387508225,0.048560071205,0.08085536529000001
1017.0,-0.06345930981,0.030096626464999998,0.04604372768,0.084019766745
1018.0,-0.055660696285000005,0.03090571773,0.046591279294999996,0.07905926198999999
1019.0,-0.05898400143,0.032819051375,0.046029969525,0.08229931495000001
1020.0,-0.05434427164,0.03266403853,0.04584012419,0.07852829419
1021.0,-0.064814599815,0.02914228634,0.04473392271,0.08399510565
1022.0,-0.052154546705,0.031457415425,0.047879311985000006,0.077549649645
1023.0,-0.050978777690000004,0.03130218905,0.048024265610000005,0.07682555283
1024.0,-0.05185668553,0.03897577391,0.04304604366,0.07785363614
1025.0,-0.05750013431,0.023782229745,0.047411626454999994,0.07864126970999999
1026.0,-0.056343491994999995,0.02902339869,0.04691936542,0.07908274431000001
1027.0,-0.052726216655000005,0.032175142515000005,0.04697518913,0.07761868029999999
1028.0,-0.05074102818,0.031051895255,0.04774577763,0.076280313535
1029.0,-0.052412245535,0.030209205429999997,0.048165693705,0.07733009426000001
1030.0,-0.05328394501,0.02777219343,0.046154595470000004,0.07586491006
1031.0,-0.0503112306,0.03235304835,0.048410651910000005,0.07716775041
1032.0,-0.048418415235,0.02636264184,0.048596100370000006,0.074034137955
1033.0,-0.04717477266,0.030749949625000002,0.04700734882,0.073381744485
1034.0,-0.0461859569,0.03119138718,0.04888330758,0.074205624675
1035.0,-0.047105034579999996,0.026754323599999998,0.049410336615,0.073324261335
1036.0,-0.044537410400000005,0.025908552515000002,0.04916460451,0.07123475526
1037.0,-0.049400225805,0.02924050667,0.04768045506,0.07466973879
1038.0,-0.038803421495000004,0.02979591333,0.048870432235,0.069480306365
1039.0,-0.04168542237,0.02590526919,0.05047219671,0.07049385304
1040.0,-0.05330699135,0.031122296879999997,0.045667270174999997,0.07699029918
1041.0,-0.008256754335000002,0.042875244765,0.055341775100000004,0.076684664065
1042.0,-0.06837769526,0.017977592715099997,0.045306772135,0.08827809319499999
1043.0,-0.036177348095,0.02832762159,0.05219798521,0.069784992185
1044.0,-0.038400076835000005,0.034766264475,0.047597304215,0.07055131907000001
1045.0,-0.043075928945,0.025727381985,0.05128884063,0.072426078115
1046.0,-0.043639510245,0.029614811595,0.048553346905,0.07177487989
1047.0,-0.03789144216,0.029763831035,0.049093658289999995,0.068861375655
1048.0,-0.04840616905,0.02824640692,0.047030795005,0.07327184886999999
1049.0,-0.0187927476,0.034711472624999996,0.055787929119999996,0.07677210178999999
1050.0,-0.04308204989,0.02686429855,0.0493607614,0.07081128671
1051.0,-0.04356020022,0.029621944334999997,0.048652256569999996,0.07180081647
1052.0,-0.036645344615000006,0.02945532592,0.05030607846,0.06895571577000001
1053.0,-0.035323677535,0.031746682054999996,0.050960714375,0.06968403545
1054.0,-0.03771702459,0.03148371213,0.050211353565,0.070303753445
1055.0,-0.035826470725000004,0.02813764011,0.050387177049999995,0.06803839410500001
1056.0,-0.035381880265,0.028174913240000002,0.05098262997,0.068182664895
1057.0,-0.035086296345000004,0.02997870188,0.05134260635,0.06908261332
1058.0,-0.032460288870000006,0.02650664959,0.050400115445000004,0.06558642161
1059.0,-0.040037573815,0.028796002195,0.05033797445,0.07054307402
1060.0,-0.03319007727,0.021689230365,0.052262763190000006,0.067217300875
1061.0,-0.031696340105,0.02750333329,0.051762121145,0.06731304702
1062.0,-0.032198779309999995,0.02494219981,0.050956392025000005,0.06548482214500001
1063.0,-0.03556560465,0.022467602255,0.052627898874999995,0.06737680258
1064.0,-0.035256853035,0.025218076605,0.050861277319999995,0.06685238566
1065.0,-0.035682914415,0.02668856965,0.052089175405,0.06897733421
1066.0,-0.03416296367,0.023274030745,0.051311019920000006,0.065917228685
1067.0,-0.0393175322,0.02495634778,0.049325368545,0.068088733255
1068.0,-0.036211204615,0.024279668715,0.051999202805000005,0.06818962492
1069.0,-0.040430088229999994,0.020052788180000003,0.051449851170000005,0.06884227442999999
1070.0,-0.035572115415,0.022496824005,0.051420947575,0.06664267718
1071.0,-0.040557620585,0.021037770285500003,0.051163887925,0.06970613606
1072.0,-0.035177199049999996,0.022419421485,0.051483134435,0.06627254131999999
1073.0,-0.03605507679,0.02251852892,0.052291018999999994,0.06779379741
1074.0,-0.043541041985,0.021702572910000002,0.05112817405,0.070656462905
1075.0,-0.03915244868,0.01733003221,0.05312470583,0.06823106788
1076.0,-0.041396518325,0.021862186135,0.05044591863,0.06885320083499999
1077.0,-0.04105810785,0.017622964815,0.052954488800000005,0.06930929795
1078.0,-0.03806199025,0.024683883295,0.05148149492,0.06864833456
1079.0,-0.043499247295,0.021722325895,0.05071123891,0.070439614495
1080.0,-0.034521701815,0.02190584964,0.051248833065,0.065976183795
1081.0,-0.044133929594999996,0.021003394959999998,0.049400694440000004,0.06951463631999999
1082.0,-0.037625578725,0.019942830430000003,0.05225480639,0.06742108347
1083.0,-0.04183225197,0.015899389085,0.050723672845,0.06766509646499999
1084.0,-0.04060212965,0.01719983134,0.05144441096,0.067843591035
1085.0,-0.04022842091,0.01627886335,0.052087266460000003,0.06949862979
1086.0,-0.03624485047,0.015846871630000002,0.0524152494,0.06570130712
1087.0,-0.037067011985,0.01551626604,0.051152841275,0.06528002902999999
1088.0,-0.037233422599999996,0.018715621680000002,0.052170136415,0.06699704484999999
1089.0,-0.036290983285,0.018284211815,0.05189472109,0.065946888055
1090.0,-0.034977006435,0.016714691585,0.052558248220000006,0.06558591722500001
1091.0,-0.03527569884,0.02197459455,0.050953330835,0.066196357345
1092.0,-0.036677323725,0.014904248874000001,0.051583683615,0.065439246405
1093.0,-0.038025595635,0.01697805276,0.05080212872,0.06649169495
1094.0,-0.038394967685,0.019394153795,0.0532956853,0.0684985563
1095.0,-0.03422190876,0.0117155945005,0.052524087865,0.06497924434
1096.0,-0.034494454935,0.017986109870000003,0.051263582955,0.06442638852499999
1097.0,-0.035572093915,0.0159373931185,0.05329628722,0.06708295349
1098.0,-0.033872451635,0.011461498583,0.05250611628,0.06365651148000001
1099.0,-0.034817602455,0.012676750635000001,0.05253162619,0.064291168865
1100.0,-0.03286547798,0.014765214125,0.05453366124,0.06577987153
1101.0,-0.03960434386,0.009685127367,0.05262661478,0.06657226395
1102.0,-0.033212828390000004,0.01174749192,0.052767074075,0.06344655286999999
1103.0,-0.034116410949999995,0.01292258736,0.05241632712,0.063902138
1104.0,-0.0313104597,0.0083943717095,0.053897690545,0.0629348825
1105.0,-0.033585652875,0.0099174209075,0.05423585452,0.06457187048
1106.0,-0.028944535804999998,0.007908019515499999,0.055357545385,0.06300792027999999
1107.0,-0.02845712882,0.0136119783855,0.054207524184999994,0.06286851571
1108.0,-0.030637892325,0.015313338995000002,0.053096192055,0.063286895815
1109.0,-0.02490914441,0.01437992704,0.052008283190000004,0.05950272003
1110.0,-0.017906076110000002,0.015277693910000001,0.055896085410000004,0.060664446659999996
1111.0,-0.020008985655,0.008143445903,0.057117058565,0.06173421548
1112.0,-0.0201913299265,0.015942854819999998,0.05338053298,0.06086109744
1113.0,-0.01573094485,0.015285024424999998,0.056013006795,0.060442649205000004
1114.0,-0.014508744930000001,0.009672214764,0.057537203935,0.060200252440000004
1115.0,-0.01288943594,0.01390552294,0.054112569985,0.057629323385
1116.0,-0.019883558580000002,0.012451184262,0.056785252004999995,0.061661049055
1117.0,-0.01537400816,0.012217483375,0.05573286784,0.059292017195000005
1118.0,-0.020498164005,0.010998059449,0.055507406085,0.060301632460000004
1119.0,-0.005599743712499999,0.0093426754375,0.058387165525,0.060492370074999996
1120.0,-0.015114734304999999,0.011962024545000002,0.05509872011,0.05840063794
1121.0,-0.0084736903375,0.009774654257,0.058222904625,0.060210154550000006
1122.0,-0.01697744224,0.011707462855,0.055275231495,0.05902868361
1123.0,-0.0094524769745,0.012319918570000001,0.056624075225,0.058714765414999995
1124.0,-0.031576636995,-7.029127099999945e-05,0.053504046815,0.0645845944
1125.0,-0.033651917010000004,0.012115837845000001,0.05019607055,0.1443068114
1126.0,0.1013154709,0.03024856951,0.0817842257,0.1336729598
1127.0,-0.08485268397500001,-0.03032962081,0.04575593575,0.15494916785500001
1128.0,-0.000985136175,-0.017748585364,0.063588728185,0.075450661965
1129.0,0.04070181823,0.027994548137000003,0.05465035905,0.07648163084500001
1130.0,0.047922641575,0.032401481355,0.07292087863499999,0.09608496509
1131.0,-0.04466897562,-0.0054302031264999995,0.048947529495,0.067616248635
1132.0,-0.023909114322,0.0053084291255,0.0535449372,0.064145591255
1133.0,0.0067073654400000016,0.0237246661975,0.060568635565,0.10180605719
1134.0,0.068269905863379,0.0369862659475,0.06909186385999999,0.118725664615
1135.0,-0.11308063775499999,-0.054833374035,0.04274074449,0.149531529
1136.0,0.022003932385,0.02792649543,0.06008489886,0.07008845857000001
1137.0,-0.03538455307,0.01664369091,0.051457097125000004,0.078359642485
1138.0,0.0046891315985,0.018624334175,0.06753114455,0.077589266145
1139.0,-0.04796312638,0.014059756154999999,0.043049420135,0.06713863312
1140.0,-0.0166992867535,0.03341514635,0.050334374395,0.06859370752999999
1141.0,0.0254175727125,0.012829480485,0.0656106495,0.07310052709499999
1142.0,-0.0289711950945,0.002455228654999999,0.05722821872,0.07486518101
1143.0,0.006651233600499999,0.0268561246245,0.058016967985,0.06949822013000001
1144.0,-0.009781282535000001,0.016896977815,0.056038052369999994,0.06422898794500001
1145.0,-0.0126508738395,0.019590244755,0.05604342378,0.06111484132
1146.0,-0.0087412520445,0.0063987729018500005,0.05826217269,0.05990444337
1147.0,-0.0091405523818,0.015739252045,0.057056855170000004,0.060565860685
1148.0,-0.0061775919355,0.011340924839999999,0.057416642375,0.058925230605000004
1149.0,-0.009938038074999999,0.01493165841,0.057018917065,0.059802910095
1150.0,-0.010789943,0.0122021602295,0.057009469795,0.059378437980000004
1151.0,-0.0112764456725,0.012167984114,0.057239208050000004,0.059721476775
1152.0,-0.002892279362,0.01748526575,0.05536743406,0.0581347792
1153.0,-0.0083923438145,0.0115374034695,0.05825631401,0.060142349635
1154.0,-0.0009140029284999997,0.014597335975,0.05983798011,0.06205929551
1155.0,-0.012683859015,0.015469276930000001,0.05524627058,0.05878160836
1156.0,-0.007604682305000001,0.016371069495,0.056531677754999995,0.059483185795000004
1157.0,-0.0045308583625,0.019975996175,0.055754422285,0.059484953435
1158.0,-0.0067821797025,0.0094185251445,0.059255803805,0.06038619126
1159.0,-0.009133998629,0.017648833015,0.056648862835,0.060059297995
1160.0,-0.0055594595502,0.015622167999999999,0.058461041085,0.061105105335
1161.0,-0.0081713749555,0.014402981975,0.056905630124999995,0.059300016420000004
1162.0,-0.0087421606555,0.01325814588,0.05715419412,0.059411341990000005
1163.0,-0.008454094998000001,0.013762410904,0.057752094850000005,0.060266627605
1164.0,-0.008860543843500001,0.01560600002,0.05648519239,0.059284622785000005
1165.0,-0.01220537477,0.018192231385,0.055202399265,0.059410812965000004
1166.0,-0.015224769445000001,0.0154248115765,0.05640828431,0.061341632869999996
1167.0,-0.015483242175,0.0116269726365,0.056137265865,0.05977517873
1168.0,-0.022790791334999998,0.022660192055,0.054189621385,0.06333361385
1169.0,-0.016868494855,0.014662660695,0.05532002002,0.06077596144
1170.0,-0.021271148715,0.018442256465,0.056927711965,0.0636497617
1171.0,-0.02378921774,0.015373470730000002,0.054995402095,0.06204425416
1172.0,-0.021060508505,0.02275454791,0.05409870865,0.06235943813
1173.0,-0.024347198325,0.020912850545,0.053304307075,0.062226674115000005
1174.0,-0.022614903365,0.019309530395,0.054038660035000005,0.06170264893
1175.0,-0.030516545399999997,0.018079911105,0.05258229633,0.06353275847
1176.0,-0.026185108625,0.01968833323,0.054137604095,0.063611026005
1177.0,-0.02813433098,0.01917852912,0.05254032822,0.06260864676
1178.0,-0.025231486509999998,0.020385125,0.052203872555,0.061852351560000005
1179.0,-0.028583021665,0.02222401843,0.052464503595,0.063921818815
1180.0,-0.02945817787,0.019026386144999997,0.053367187575,0.064168102755
1181.0,-0.02945154386,0.024559295325,0.050729101580000005,0.063688219245
1182.0,-0.026196457665,0.02221014491,0.05308416514,0.063272191745
1183.0,-0.02947746222,0.024406520335,0.05253920464,0.06535771694
1184.0,-0.024735499305,0.01686263259,0.054312212275,0.062066265089999996
1185.0,-0.02814982324,0.022701947335,0.051109755315000005,0.064365195015
1186.0,-0.023847823179999998,0.02120057798,0.054536292485,0.06336200891
1187.0,-0.024122668115000002,0.02516949957,0.052628454935,0.063210812045
1188.0,-0.01955821405,0.021361722515,0.05514256849,0.062428418145
1189.0,-0.028775832165,0.01677854017,0.051322668495,0.061515745475
1190.0,-0.024630237955000002,0.021159488395,0.054138074164999994,0.06321351623
1191.0,-0.0217657558,0.019933042075,0.053432389765000005,0.06106173112
1192.0,-0.02055512563,0.021452956275,0.05305427555,0.060826984525
1193.0,-0.01491369614,0.02457201302,0.053478657289999995,0.06078570864
1194.0,-0.02365545695,0.022202072735,0.052833887110000005,0.06208280651
1195.0,-0.015755431495,0.024000892675,0.054536470190000005,0.061687522999999994
1196.0,-0.015008128669999999,0.021767333689999998,0.05526094021,0.062180317695
1197.0,-0.020159577254999998,0.026111222315,0.052275357630000005,0.06188725516
1198.0,-0.014282731409999999,0.02278716764,0.054244728529999994,0.060600478865
1199.0,-0.018344138609999998,0.018798440755,0.054890731205,0.060938930655
1200.0,-0.0169953307085,0.019933637545,0.050888002535000004,0.057689650245
1201.0,-0.02049976769,0.02111812006,0.057076277099999996,0.065337152375
1202.0,-0.011933227007,0.020938906479,0.05459569905,0.06844278772500001
1203.0,-0.03671657316,0.04621615892,0.04925350512,0.07687618523
1204.0,-0.0104163159515,0.016558713527000002,0.054729611755000004,0.059875221085
1205.0,-0.02428611642,0.02328619095,0.052799537585,0.062714819965
1206.0,-0.02089561845,0.0201300481,0.054679325695,0.0628008919
1207.0,-0.0098622177435,0.02338211825,0.05036898762,0.058149066779999994
1208.0,-0.021773178039999997,0.019475436540000002,0.051800242695,0.060868161765
1209.0,-0.008448997315500001,0.02431339626,0.055364275415,0.061109790005
1210.0,-0.019076202845,0.019905778715,0.05381171928,0.06062898729
1211.0,-0.0123367665755,0.01859773006,0.054613727965,0.059741228595
1212.0,-0.02596243719,0.020906545435,0.05197806111,0.061960045650000004
1213.0,-0.013647471554999999,0.022117400614999998,0.054425774375,0.061212395835
1214.0,-0.012939508455,0.01862260724,0.054081757455,0.0586975165
1215.0,-0.017237376775,0.02045404117,0.054941877145,0.06111762902
1216.0,-0.014660789729999998,0.018699270254999997,0.054813072155,0.0598161064
1217.0,-0.015001235259999999,0.02062255635,0.054342279575,0.060063245455
1218.0,-0.014975124865,0.024613338355,0.053911838515,0.061393244015
1219.0,-0.02388980418,0.014979571904999999,0.05348623574,0.06058523986
1220.0,-0.012968687205,0.01774191266,0.05460348387,0.058873078405
1221.0,-0.020328209235,0.02184873109,0.052565098635,0.06048968149
1222.0,-0.0100758546525,0.023073816635,0.053539531385000005,0.059244900635
1223.0,-0.018446128095,0.02187708077,0.052917009295,0.060363176765
1224.0,-0.012090792270000001,0.024012635835,0.055319291985000005,0.061509489455
1225.0,-0.01687176815,0.02337460357,0.052312756885000006,0.059730548085
1226.0,-0.015285819820000001,0.02120364562,0.05365367821,0.059893460865
1227.0,-0.0127271097815,0.02550484599,0.05562263063,0.06260113381
1228.0,-0.01863292944,0.03040306499,0.05046000354,0.06178789831
1229.0,-0.01597470925,0.02472129831,0.05214084874,0.059933642295000006
1230.0,-0.011997196695,0.0252500292,0.05490762507,0.061682952525
1231.0,-0.015234943309999999,0.02383689261,0.052464560915,0.059808163675
1232.0,-0.006876133566,0.024336341565,0.05610578262,0.061573208010000005
1233.0,-0.0110347707895,0.021665415860000002,0.052829513164999994,0.05819251493
1234.0,-0.0081024365695,0.02003380121,0.0558144365,0.05993678731
1235.0,-0.010125243562000001,0.022278558045,0.055428606255,0.060607762805
1236.0,-0.00599052403095,0.020813465075000002,0.056136698335,0.0604480626
1237.0,-0.0065228255925,0.02221578575,0.054809741535,0.059551908015
1238.0,-0.0072035833755,0.022854193495,0.056426055259999996,0.06131938891
1239.0,-0.005103060007,0.022846454534999998,0.05455387999,0.059436678975000004
1240.0,-0.00527610032875,0.02171710424,0.05603277841,0.060626289890000004
1241.0,-0.003178021899,0.0240620792,0.05624255587,0.061269412805
1242.0,0.0009100990524249999,0.022053393665,0.057108975645000004,0.061271541765
1243.0,-0.0060493415725,0.020778724305000003,0.05488936112,0.059007406955
1244.0,0.0018360500785,0.024014387855,0.059208808245,0.06392772312
1245.0,-0.0045193559720000005,0.02302781854,0.056460284395,0.061154156895000006
1246.0,-0.0052482443655,0.0183539413,0.056854765079999994,0.06020344724
1247.0,0.002834986681,0.014388950094,0.059922799135,0.06228545268
1248.0,-0.00126629767175,0.0236493503335,0.05452755032,0.061553823859999995
1249.0,-0.012931707868,0.016065964505,0.053664982825,0.05787520609
1250.0,0.001854461642,0.01648814351,0.05795186898,0.060412911655
1251.0,-0.0055283231265,0.014132313220000001,0.05656872732,0.058906211305
1252.0,-0.0033989047675,0.01670272701,0.05846021559,0.06190227392
1253.0,-0.0012624339234999999,0.013210114155000001,0.0573881458,0.059216307855
1254.0,0.006703683699,0.01032046461,0.06025806816,0.06150191984
1255.0,0.0012109698267999999,0.012319398334999999,0.05817377082,0.059483091535
1256.0,-0.0010177236490000001,0.011519411098,0.057117379585,0.05830380012
1257.0,0.0044201625445,0.009575411099,0.05705932591,0.058033848065000004
1258.0,0.00123640951435,0.0099941656115,0.058157725369999996,0.059064832989999996
1259.0,0.0040791523545,0.007971021113999999,0.0591552145,0.05993815479
1260.0,-0.0005562307201999999,0.0081905840625,0.056620045235,0.057237813535
1261.0,0.003908372096,0.0092659106675,0.058742269225000004,0.059616210045
1262.0,0.0034021651655,0.010997082047,0.058179268349999994,0.0593441619
1263.0,0.0009187623900499999,0.005316608062,0.059131195055,0.05940203936
1264.0,-0.0017144351585,0.0032852330345000003,0.05859755637,0.05873308762
1265.0,-0.0046282059044,0.00144457540744,0.05904373905,0.05947479922
1266.0,-0.0019658410683,0.00630941225545,0.057791615145,0.058454344335000005
1267.0,-0.0083951427395,0.0022156741051999997,0.057180626969999995,0.057866164515
1268.0,-0.0022204056209999996,0.00164464477,0.058193307400000005,0.058826594105000005
1269.0,-0.00557708861895,0.0010866964299999999,0.058357367655000006,0.058925515634999995
1270.0,-0.013952666115,0.0007519777294999999,0.056322748715,0.058126969740000006
1271.0,-0.0023614940615,-0.0011423782611,0.060952253045,0.061332783115
1272.0,-0.0092299932855,-0.0009958152210000006,0.05737763801,0.059317035680000005
1273.0,-0.0080911735135,-0.001889566433,0.058393620395,0.05940066185
1274.0,-0.0058740397545,-0.0030068073991499997,0.058219545345,0.058703921670000006
1275.0,-0.010466566176,-0.0022399149704999998,0.05870792543,0.059865070184999994
1276.0,-0.0084210711255,-0.0054474165815,0.05909025881,0.060078561715
1277.0,-0.005868317222,-0.005298021655,0.059584038975,0.060338782565
1278.0,5.58351764999999e-05,-0.0095990529135,0.060419611825,0.061267141215
1279.0,-0.01845047338,-0.009045141015,0.05954440976,0.06299024748
1280.0,-0.009250242136,-0.00730369258,0.059103770465,0.060325571970000005
1281.0,-0.00943442656335,-0.005750634841,0.05833943046,0.060076060279999996
1282.0,-0.0023434608475,-0.005868245565,0.060082210285,0.060524830104999996
1283.0,-0.0026369237154,-0.0073704239285,0.060815697625,0.06136556027
1284.0,-0.0062564017975,-0.0060010475845,0.060155598569999996,0.060889941914999995
1285.0,-0.003685439834,-0.00131514127,0.05797495975,0.05813275004
1286.0,-0.0048070676449999995,-0.006946206281,0.06123606084,0.062001594085
1287.0,-0.008096317059,-0.005469112188,0.05855123152,0.059433700575
1288.0,-0.00054655415168,-0.00264657735405,0.060689111145,0.06081782262
1289.0,-0.00528360855495,-0.0077033934785,0.06032699078,0.06139831341
1290.0,-0.0044110549325,-0.0035699745225,0.058400619855,0.058746999845
1291.0,-0.0029404844955,-0.0023302007094499998,0.058595767810000005,0.05891850149
1292.0,-0.004413749238,-0.0058369772925,0.061377150714999995,0.061946143635
1293.0,0.00013259708000000004,-0.0026111802024999997,0.05812276819,0.058706233145
1294.0,-0.00023150387930000004,-0.0006264517675,0.06057820322,0.06061203823
1295.0,0.0013385509130000002,-0.005830959533,0.06107343372,0.061632765165
1296.0,0.001462339908,-0.0066343827285,0.061124401955000005,0.061521234694999996
1297.0,-0.0026273460325,-0.00329812342215,0.057155518335,0.05798635154
1298.0,0.00053297227335,-0.0056168797835,0.060840250205,0.06114122658
1299.0,-0.011304768839,-0.0080904877575,0.05690387596,0.05940188306
1300.0,0.01126107523755,-0.004941095716,0.06375112600499999,0.065937576295
1301.0,-0.0014908608490000002,-0.0065686474125,0.061590035225,0.062020197225000004
1302.0,-0.0016770688704999999,-0.007557609353000001,0.06088539414500001,0.06144816211
1303.0,-0.0010577111519999999,-0.0071304580675,0.06090496512,0.061505921195
1304.0,-0.004648711287,-0.003774834159,0.060495797605,0.06096387137
1305.0,0.001313238775,-0.008620988578,0.05999101092,0.06062150964
1306.0,-0.004290626652500001,-0.003451544041965,0.05941516336,0.060217374995
1307.0,-0.004030071571500001,-0.0043828636145,0.060488907065,0.060972690545
1308.0,-0.00153137861379,-0.0009454754234999999,0.059099064034999996,0.059187933725
1309.0,-0.0017344934009999998,0.00010658055349999996,0.05953136244,0.059657662185
1310.0,-0.0022594759129999998,0.00087644101745,0.05940826709,0.059463731975
1311.0,-0.0014236966915,-0.00053280531245,0.058613819654999996,0.058721121264999995
1312.0,-0.003093093958,0.00099850451005,0.05872476197,0.05881569121
1313.0,-0.00419292369335,0.0007326618538499999,0.05918955256,0.059522261245
1314.0,-0.0007535842804999998,0.001308718648,0.060185579885,0.06045400805
1315.0,-0.0014250266464999998,0.005105751446,0.057106631029999994,0.05744115028
1316.0,-0.0043166940570999995,8.086856850000011e-05,0.06034245151,0.060747892745000004
1317.0,-0.004267254989,-0.00044070951650000017,0.05875511017,0.059020610175
1318.0,-0.00067252438735,0.002184713958,0.057708739465,0.05776469755
1319.0,-0.002380566303,-0.0023641797681500003,0.060821991985000004,0.060987055065000004
1320.0,-0.004193601567000001,0.008413762823,0.058128879105,0.059791779385
1321.0,0.0029828538785000003,-0.0016602796250000003,0.05952514261,0.061806788780000003
1322.0,-0.0105798502485,0.0055637338955,0.05440442057,0.0558306244
1323.0,-0.0181598338,-0.00015697122750000007,0.056964847515,0.06514673764500001
1324.0,0.0024741604450000017,0.0033769726935000003,0.059817153705,0.06831519157
1325.0,0.00664837305185,0.003480804482,0.061547556925,0.063236193795
1326.0,-0.0100104489625,0.002167130034,0.057031488575,0.05836127373
1327.0,-0.002439415376,0.0036077535546,0.059271109754999995,0.059517008805
1328.0,-0.0050458232185,0.00108373197805,0.057634445425,0.057874532855
1329.0,-0.003845240798,0.0006014828670000002,0.05881009119,0.059110398684999996
1330.0,-0.0063704282335,0.005304745236,0.057941464375,0.058771006455
1331.0,-0.003078031645,-0.0001189793734,0.06136930283,0.06144656024
1332.0,-0.007117334078,0.000574522617,0.056545109154999995,0.057038568995
1333.0,-0.00075393396725,0.0031103045494000003,0.05860327747,0.058807049295
1334.0,0.0005754133141,0.00082563114975,0.05887915713,0.05890548745
1335.0,-0.0021127652595,0.0048196556395,0.0599481428,0.060291314005
1336.0,-0.0025113289627,0.0037697214285,0.05919581252,0.059477866525
1337.0,-0.004353882635,0.002343677968,0.058820490064999995,0.059210642145
1338.0,-0.0033475209290000003,0.00027801575649999996,0.059116743255,0.05928490756
1339.0,-0.006587384299,6.218255879999999e-05,0.05851394119,0.058890389609999996
1340.0,-0.007727670172499999,-0.0033043955640000003,0.057595899665,0.05856212177
1341.0,-0.007323851143,0.0005933591065,0.058287355845,0.058785444615
1342.0,0.02683523731,0.0090130558517,0.065269045985,0.074468433445
1343.0,-0.066666966205,-0.022825182425,0.04784029615,0.086715347955
1344.0,-0.0384497752985,-0.028932491685999998,0.05297709803,0.08688935986
1345.0,0.04669255651,-0.014793123830000001,0.06753284711999999,0.08520529492000001
1346.0,0.03822385709,0.0071085001965000005,0.068157576255,0.0838285258
1347.0,-0.10189230536,-0.07696477569685,0.0696775141,0.15838124669999998
1348.0,-0.21749258915000003,-0.34948758085,0.393789027385,0.66040880895
1349.0,0.043351753910000006,-0.2666996003,0.086957349135,0.3182897959
1350.0,-0.07737328712,-0.002741747955000002,0.13103735818,0.16549761359999998
1351.0,0.081657374435,0.0005913025499999988,0.134208102605,0.2674277887
1352.0,-0.009558514365,-0.116738089765,0.116702553635,0.1969133177
1353.0,0.024678266815000002,-0.041448194524999996,0.11317046275,0.1316588007
1354.0,0.06529841821,-0.06513789638,0.08234888329500001,0.12516163255
1355.0,0.12454989467199999,-0.031327008185,0.10981964128499999,0.1982351719
1356.0,0.2885067724,0.1998072583,0.0274839085,0.3520148625
1357.0,0.05447420880000001,-0.203332808335,0.09516991828500002,0.5910147678
1358.0,0.108494044699,-0.6687366455999999,0.22912602880000002,0.8533268204000001
1359.0,-0.46053558277,0.27671576370000006,0.2994575196,1.02125512105
1360.0,0.038350445725,-0.031967724004999996,0.154303693,0.1866494877
1361.0,0.03973177879999999,-0.08970065705199999,0.054474524115000006,0.29952516595
1362.0,0.1131549533,-0.019962474494999997,0.07483981443,0.14755706795
1363.0,0.011523006135,0.1228179673,0.03110731912,0.15906274191
1364.0,0.12172453938,-0.11712237081000001,0.11511989576,0.22557041545
1365.0,-0.0054226304065,0.043070978877,0.052552160235,0.07684603274499999
1366.0,-0.022205897795000002,-0.00677294597591,0.05125114902,0.07584032369
1367.0,0.0301114996,0.011804361830000002,0.06613137845,0.09926535390999999
1368.0,-0.0162646293905,-0.0175825022255,0.058069678915000006,0.068094513235
1369.0,0.023408883590499998,0.011104855692,0.06613062175000001,0.075666382575
1370.0,0.00026000762250000004,0.0028776383924,0.058906340944999996,0.059089082905
1371.0,0.0023056072915,0.005851576701,0.05931283709,0.059765280565
1372.0,0.0004287829165000001,0.007522055989,0.059322616844999995,0.059847377985
1373.0,-0.0059219023669999996,0.004210311994,0.057411741035,0.05814259898
1374.0,-0.002252748749,0.004088661246,0.05858078289,0.05877394106
1375.0,-0.004803500557,0.0042747144885,0.05729459035,0.057714886470000004
1376.0,-0.006250983090999999,0.00558989087,0.05782086269,0.05848461687
1377.0,-0.001692135483105,0.005917257557,0.05854678878,0.05889551742
1378.0,-0.0030771602955,0.005748473664500001,0.056336610055,0.056713654424999996
1379.0,-0.005215408237,0.007739807446,0.05500852394,0.055794793605000004
1380.0,-0.00078256382647,0.0101888248655,0.05704814741,0.057990323435
1381.0,-0.0051596490165,0.013054237135,0.05431717094,0.056109996635
1382.0,-0.004465386745,0.006629682025,0.05885174401,0.05939208815
1383.0,-0.0040257750145,0.012142346656499999,0.055000458220000006,0.05662221696
1384.0,-0.0033383760555,0.013313045215,0.054215056770000006,0.056030176725000005
1385.0,-0.0006215418264000001,0.01791585443,0.054379145695,0.05760304552
1386.0,-0.0065841568655000005,0.00736540363525,0.056054109285,0.057472082290000004
1387.0,-0.0036401368109999998,0.01298134901,0.055368850005,0.056990381745
1388.0,-0.0078817113445,0.014754465565,0.05407731472,0.056717326715
1389.0,-0.00301635641825,0.01569289638,0.055464148155000004,0.057885055485
1390.0,-0.0061306178700000005,0.015489320124999999,0.054851233835,0.057465969209999995
1391.0,-0.0048668611575,0.016448313649999997,0.05514781952,0.057791768694999995
1392.0,-0.0048224710455,0.015715226155,0.054264975945,0.056955347510000004
1393.0,-0.004126937578,0.016582038610000002,0.054156183335,0.05689788438
1394.0,-0.0039750375205,0.017069551655,0.05638698783,0.059051505615
1395.0,-0.00132172153715,0.015230067765,0.057665120380000004,0.0596708967
1396.0,-0.003706984244,0.013980963490000001,0.056140418770000006,0.057986659440000005
1397.0,-0.0010290755593,0.01323797442,0.055232867845000005,0.056835458204999995
1398.0,0.004539511668,0.01582831675,0.05710592019,0.059448207579999995
1399.0,-0.0008085423751000001,0.0106788989275,0.05820534578,0.059222600205
1400.0,0.0038000008335,0.016551067,0.057172211570000006,0.059676307415000004
1401.0,0.009126480369,0.016806841125,0.05844346504,0.06155361601500001
1402.0,0.007038426763,0.015587094740000002,0.059799067464999994,0.062306502220000004
1403.0,0.012414017175,0.01566329199,0.059745748885000005,0.06303996131
1404.0,0.009200515006,0.016282866110000002,0.059834792804999995,0.063103697305
1405.0,0.0098996055325,0.018084443415,0.059382757175,0.062940379575
1406.0,0.011665792849,0.016558533665,0.06126954475,0.06474964355
1407.0,0.0001009074642,0.01900237888,0.05398543891,0.05723223043
1408.0,0.015452547155,0.014064114333,0.06350570345499999,0.06767205480499999
1409.0,0.01337078647,0.017492470155000002,0.060492713485,0.06437591855
1410.0,0.010768142056,0.014947503934999998,0.05951684759,0.062482701254999995
1411.0,0.01642993505,0.017817876305,0.061132903345,0.06606518612
1412.0,0.017748526605000002,0.014637210259999998,0.06266735604500001,0.06704408022
1413.0,0.014434922395,0.013559018085,0.06127223332,0.06443126122000001
1414.0,0.0098881361025,0.01204557237,0.060519215135,0.062571079145
1415.0,0.0080585695545,0.012981715894,0.060340227275,0.062371546885
1416.0,0.0067627620745,0.009603217623,0.05982770162499999,0.061022331825
1417.0,0.0130813091665,0.0122792044655,0.059102446244999995,0.063465064505
1418.0,0.0066044601754999994,0.011574650805,0.059176510975,0.060716839395
1419.0,0.004299090785,0.009030340967,0.058792973755000005,0.059661469395
1420.0,0.012369053809999999,0.014580176975000001,0.058713302575,0.06185998405
1421.0,0.004193402362,0.011076683004500001,0.058908960735,0.0601802035
1422.0,0.004154585736,0.016200833115,0.06319578955999999,0.06579792059
1423.0,0.006424142365,0.006533922403999999,0.05574987636,0.06289514049
1424.0,0.00594571544,0.013361440957,0.05892169276,0.06110961032
1425.0,0.0050417330345,0.0092013863575,0.059583454255,0.061471005535
1426.0,0.0049728777695,0.0112496616995,0.059520906245,0.061098632275
1427.0,-0.0008184840751050001,0.0091298697505,0.057448756205,0.058456767515
1428.0,0.009210458137499999,0.0078025231335,0.060551311755000004,0.062064926615
1429.0,0.005031865857500001,0.0058794656265,0.05852483306,0.059171736845
1430.0,0.011570722565999999,0.00622329623765,0.0629089607,0.06501061738
1431.0,0.003354710998,0.0058120592685,0.05832429076,0.058846415624999995
1432.0,0.010032615355,0.0095655102465,0.05925648025,0.061120551004999996
1433.0,0.01181934388,-0.0008205248678,0.06408439436,0.06517039015
1434.0,0.0070685141270000005,0.008961879817,0.05955954373,0.060744933795
1435.0,0.005478489947000001,0.0083964411675,0.058721167655,0.059628103355
1436.0,0.0055737737655,0.005379042853,0.06247641006,0.06296430749500001
1437.0,0.004693365098,0.0054521101173,0.059651373679999994,0.060990926175
1438.0,0.009002988036000002,0.0065426760295,0.059276635945,0.06038181293
1439.0,0.0059507529305,0.008987158995000001,0.059902202030000004,0.06090659777
1440.0,0.010246928704499999,0.005173680900499999,0.06038392088,0.061538110859999995
1441.0,0.0043521700314999995,0.007285418598,0.058626987355,0.05927935873
1442.0,0.007225069026500001,0.008144353080499999,0.059934218405,0.060975140695
1443.0,-5.1981460499999884e-05,0.0061216005465,0.057716438295,0.05812881768
1444.0,0.004782340228,0.0099427545405,0.059058552,0.060945837095
1445.0,0.0059512803265,0.008838380315,0.059593853125,0.060614037504999996
1446.0,0.0025679581,0.0070920849985,0.058358456845000004,0.059207998585000005
1447.0,-0.00071900831845,0.0080944095475,0.06163992,0.062429903030000004
1448.0,0.0056187643635,0.0082974670105,0.059371034084999996,0.060327642050000005
1449.0,0.0028935505582,0.006497203896,0.059284105475,0.059798301070000004
1450.0,-0.001840679124,0.005806832604515,0.05844284019,0.05939058406
1451.0,0.0104177505285,0.0075886454545,0.059936287855,0.061787155625
1452.0,-0.0003046284705,0.006215757916,0.058045676665,0.058477995495000004
1453.0,0.010881494919499999,0.006957213525,0.062359930085,0.06434779824
1454.0,-0.001928397391,0.004471380141,0.05923191621,0.059552257654999996
1455.0,0.0040976312759,0.006035084685,0.058213021685000005,0.058783802110000005
1456.0,0.0020150895285,0.0053639561775,0.059008483784999996,0.059289945215
1457.0,-0.0005637518444999999,0.0036981947895000002,0.059774428904999996,0.0599645527
1458.0,0.005258810915,0.006854149182,0.0605303535,0.06114374987
1459.0,-0.004281627963000001,0.00649988387,0.05907932681,0.060504387235
1460.0,0.011392428349,0.00753892405875,0.062773431415,0.06536361630000001
1461.0,0.00349817702,0.0074610930347,0.059919921385000005,0.06096480601
1462.0,0.006647763964,0.0076349832055,0.06084069734,0.06188723092
1463.0,0.0057091683365,0.0063598373225,0.059544931425,0.06018499354
1464.0,0.001330803352,0.006371920135,0.05915342021,0.059514700615
1465.0,0.0066087954285,0.0073800632338,0.060742555840000004,0.06265780026
1466.0,-0.00023210436549999996,0.004327601694,0.058077595585,0.05829724169
1467.0,0.001359821593,0.00698761331,0.059540798245,0.060111118455
1468.0,0.008698714984499999,0.006596615159,0.06349513834,0.06456044809
1469.0,0.00110714878645,0.005509759652,0.058600181885000005,0.058912535145
1470.0,0.0033720777995,0.0086011854355,0.059793535545,0.06131962886
1471.0,0.008806381143,0.0068038903585,0.06020675598,0.061760093205
1472.0,0.005879259253999999,0.006602922415,0.0590960659,0.059754002929999994
1473.0,0.006688251635500001,0.006451158506,0.06298819621,0.06374158837
1474.0,0.0115667198035,0.0083320229055,0.061947638325,0.063715377135
1475.0,0.0072601121930000005,0.006983503064,0.06201946162000001,0.06369271894
1476.0,-0.0183954880545,0.005569604758,0.053196311295,0.058733016855
1477.0,0.0221519099325,0.009932679561,0.063597235315,0.069485170685
1478.0,0.0029985940674999998,0.0076543076815,0.05878433478,0.05971738189
1479.0,0.005550053847,0.0061468754225,0.06132923794,0.06196085311
1480.0,0.01199740593,0.0091050076165,0.06134902675,0.06322648249
1481.0,0.008578811235,0.00651782393,0.06074889032,0.0617899151
1482.0,0.010313509574,0.0081389415395,0.061213027395,0.0626440954
1483.0,0.0073111205505000006,0.006411664004,0.061555410535,0.06233031061
1484.0,0.01207580448,0.01287725137,0.05895956208,0.0615457441
1485.0,0.004799464831500001,0.0079480285155,0.058695680675,0.059468074329999995
1486.0,0.0037903729915,0.009720507322499999,0.059553031534999995,0.060473176739999995
1487.0,0.00229967982005,0.0106199552675,0.058933169354999995,0.06000162192
1488.0,0.00029836134399999995,0.006851674149,0.05876267142,0.05940487195
1489.0,-0.003612298045,0.0047218430435,0.058194224605,0.05861779434
1490.0,-0.008315169166,0.009859854496,0.05670234193,0.0582070272
1491.0,-0.006342224019,0.0040699186265,0.057926020849999996,0.058434195450000004
1492.0,-0.011628247416499999,0.0085598751442,0.05512370262,0.058549445150000004
1493.0,-0.0026997970479999997,0.0071170101885,0.058837206224999994,0.059803327249999996
1494.0,-0.00670007075,0.0079973729955,0.05791902139,0.0589076429
1495.0,-0.0093970101155,0.007876865895,0.055597252565000005,0.05700635522
1496.0,-0.009545727168,0.011161155203,0.05826386953,0.062486359564999996
1497.0,-0.009944009975,0.006335750519,0.05717003319,0.058611602045
1498.0,-0.0082501375225,0.0057838564844999996,0.057174470195,0.058194366395
1499.0,-0.0099562447005,0.007188452272,0.056335744435,0.057752633835
1500.0,-0.015862756565,0.0080017096815,0.055742274975,0.058626223435
1501.0,-0.010128396473500001,0.006211773784,0.05638026353,0.05773300827
1502.0,-0.011517479939999999,0.005757713124999999,0.05686486586,0.05845718543
1503.0,-0.012968690075,0.007207439958499999,0.055726825715,0.057747920174999995
1504.0,-0.015221418760000001,0.00751051777,0.056254972604999995,0.058777574740000005
1505.0,-0.0053715675895,0.0083063639495,0.058548766515,0.059497572570000004
1506.0,-0.016489419005,0.00605453241,0.05223210543,0.055563550425
1507.0,-0.00070682518625,0.005575909146,0.061154945055,0.061483656139999995
1508.0,-0.013118632465,0.0033040064660000003,0.05366674846,0.05541712138
1509.0,-0.01523197384,0.002630940351,0.05607806567,0.05816944493
1510.0,0.006789432830000001,0.015000670607,0.060004906654999995,0.06508505739499999
1511.0,-0.042761411789999995,-0.0157962889115,0.04934463569,0.09042279269
1512.0,0.0027753665785,0.010019774409,0.060140263964999996,0.061836813705
1513.0,-0.0524396500605,-0.0165345830105,0.04839421092,0.083795291415
1514.0,0.114749410175,0.038632212735,0.078596868305,0.202207185035
1515.0,-0.09658996190000001,-0.11098313259249999,0.0450999412115,0.30065686795
1516.0,0.048673740774999995,-0.03892821514,0.079739677955,0.15278033915
1517.0,-0.022771085645,-0.027405856765,0.051031861235,0.08865597128
1518.0,-0.09801710280000002,-0.23789883524499997,0.54603268325,0.6940437593500001
1519.0,0.031248483699999996,-0.4404166225,0.15858188280000002,0.8430515972000001
1520.0,-0.07512511840000001,-0.287358919585,-0.00042382139999999624,0.43411043015
1521.0,-0.1140660132715,0.017166708585,0.400930042725,0.42780580111
1522.0,0.2527144463,-0.11118332089499999,0.107383599535,0.316267215
1523.0,0.13058486395,-0.07586113956,0.08850711348,0.18104433695
1524.0,0.0252439598505,-0.069493991785,0.08514460334,0.12509381162
1525.0,0.003722036525,-0.034503284515999995,0.08820364299,0.104243705695
1526.0,-0.039417860453,-0.186455852205,-0.011290640935000002,0.25563108715
1527.0,0.24105379367000002,0.04468829145,0.26012852802499997,0.55542016415
1528.0,0.047802324495,-0.13723744045000003,0.05101515655,0.7118218222499999
1529.0,0.06526741865499999,-0.04916375610000001,0.07250636264999999,0.3254043341
1530.0,0.06265793046500001,0.021168809539999996,0.04825186561,0.1533048309
1531.0,0.053954236069999995,-0.021846261069999998,0.058677978515,0.08524242785
1532.0,0.015968657315,0.0432562919025,0.057555404835000004,0.086984024285
1533.0,0.017114328355,0.011586717855,0.05336662005,0.057997574154999995
1534.0,0.01524605687,0.01991294657,0.051795243899999996,0.057579675149999995
1535.0,0.01351061429,0.01684122505,0.05135100456,0.05570537881
1536.0,0.01336373658,0.01611391741,0.052727175425,0.056803717775
1537.0,0.011185251501500001,0.01519215975,0.052095658935,0.05555772579
1538.0,0.0091775790145,0.014744470837499999,0.05387024876,0.057133578899999996
1539.0,0.0114457682035,0.0118048290305,0.053995625675,0.0566641631
1540.0,0.008196269557,0.01218796497,0.05335291922,0.055393073895
1541.0,0.010003998484999999,0.014687646794999999,0.0543955007,0.05724952968
1542.0,0.0070858819610000005,0.013846122108,0.05350734304,0.055995964545
1543.0,0.003983222458,0.0094601442805,0.05391907301,0.05519754989
1544.0,0.006543055543499999,0.016954033315,0.05046855653,0.053734680265
1545.0,0.0057748793785000006,0.01346010986,0.051739999179999996,0.053794168020000005
1546.0,-0.00241017186355,0.011093178455500001,0.053034480999999994,0.05492347698
1547.0,0.005626743375999999,0.0190894063745,0.052413690145,0.057449346129999995
1548.0,0.004626634915,0.012570468890500001,0.05058450911,0.056628997114999996
1549.0,0.0078981645221,0.012629282136500001,0.052180879235000005,0.054850807625
1550.0,0.0059879888025,0.0194483036,0.051522786585,0.055422823945000005
1551.0,0.0006882165659549999,0.014795140975,0.053343242655,0.055367017645
1552.0,0.0048870551005,0.0177535555,0.05378661638,0.057116835005
1553.0,0.00520344410605,0.023562777144999998,0.050127102065,0.05618208238
1554.0,0.0043047740855,0.017512197345,0.053871441135,0.056884470995000005
1555.0,0.008902806997,0.02355056822,0.051281244985,0.0573097776
1556.0,0.00041705990999999984,0.01599684411,0.054280746229999996,0.05820777873
1557.0,0.003341206599,0.02452859099,0.052444760645000005,0.05824571774
1558.0,0.004080232226,0.02274965302,0.05257803703,0.05756840568
1559.0,0.0029435997865000004,0.02792492757,0.051374737375,0.058893565960000005
1560.0,0.008027257571,0.02920038445,0.05124545658,0.0595247523
1561.0,0.007765618944499999,0.024225395665,0.0512629753,0.05736345877
1562.0,0.0037457977365000002,0.029173348245,0.05134179233,0.060052014955
1563.0,0.0104535707235,0.026301959780000002,0.05254638754,0.059830344435
1564.0,0.006984774169999999,0.02645207844,0.05148931987,0.058320227370000005
1565.0,0.0061552037635,0.030237511395,0.049772067155,0.058573944089999996
1566.0,-0.00293789158515,0.027172046965000002,0.05187571764,0.058867691449999995
1567.0,-0.0015348486065,0.03157015347,0.05204093588,0.060948256835
1568.0,-0.0055677683665,0.030021637355,0.052338341319999995,0.06060030837
1569.0,-0.0058120848855,0.03153563053,0.051137340419999996,0.06036750373
1570.0,-0.008793610961,0.0321397468,0.05141164936,0.06134984632
1571.0,-0.006696109548499999,0.03210854875,0.050119758655,0.060001477715
1572.0,-0.0102644232385,0.033121640485,0.050472724105,0.061262140775
1573.0,-0.014730174535,0.032365174155,0.051376514469999995,0.062517618645
1574.0,-0.011418394355,0.03214874979,0.051793569989999996,0.06203608776
1575.0,-0.017440539215000002,0.035296232885,0.049075847214999996,0.06291913918
1576.0,-0.018456401570000003,0.031977543885,0.051045137855,0.06303583293500001
1577.0,-0.016827779855,0.03186835717,0.051949994475,0.063335131445
1578.0,-0.020900912294999997,0.03098237215,0.05164023536,0.063785543405
1579.0,-0.022360736324999998,0.03092229917,0.05203166632,0.06458473706500001
1580.0,-0.024685541079999998,0.031166585235,0.052700037465,0.06610455917
1581.0,-0.024452115,0.0318678484,0.05164137614,0.06545575171500001
1582.0,-0.024846629005000002,0.031955228445,0.051271258855,0.06532484857500001
1583.0,-0.024616230795,0.03463864756,0.050787997945,0.06622867123000001
1584.0,-0.02463635693,0.030209315775000002,0.05204568817,0.065092580075
1585.0,-0.02274551142,0.035587940155,0.050997620630000004,0.06624549949
1586.0,-0.02935839435,0.0390039466,0.0516279906,0.07105401173
1587.0,-0.016553023235,0.032640669735,0.051981603835,0.063747237665
1588.0,-0.021000494645,0.035568575549999995,0.05127148816,0.06587593145000001
1589.0,-0.020102211485,0.039170693995000005,0.050278906105,0.066836544005
1590.0,-0.014272957925,0.034617290895,0.05186510666,0.06397823359499999
1591.0,-0.014198814904999999,0.037102218529999995,0.049726814295,0.06367810098
1592.0,-0.011447329475,0.035684986735,0.05272695759,0.06474376714499999
1593.0,-0.0106815844555,0.038050874804999996,0.049818718765,0.06553424802999999
1594.0,-0.010348406738500002,0.03748085584,0.05057608224,0.06382517421
1595.0,-0.0114292573865,0.031992799675,0.050542225715,0.061063315415
1596.0,0.003416792341,0.03368843059,0.054105180715,0.06386318011
1597.0,-0.0078185458325,0.037294825525,0.049437572025,0.06267920092
1598.0,-0.0003991061470000005,0.03945954788,0.05089953072,0.06485831692499999
1599.0,-0.008615249206,0.03426858187,0.049648903009999995,0.061646039284999996
1600.0,-0.0160780113095,0.04755407208,0.048415398475,0.074745751975
1601.0,0.033656595505,0.021405286422500003,0.05497088965,0.084233092575
1602.0,-0.0067625558809999995,0.039166160975,0.048674309745000005,0.06356573763000001
1603.0,0.0064176969905,0.037854600405,0.0503793005,0.0634378771
1604.0,0.012621096216000001,0.040146182975,0.049258137029999996,0.06775539050000001
1605.0,0.0009805226205,0.03851890573,0.049136469084999995,0.06287747383
1606.0,0.007908055971,0.046415723815000004,0.049342778345000005,0.06830203173499999
1607.0,0.010554123575,0.040652766825000006,0.049812476005,0.06515731187
1608.0,0.0035973437555,0.04720672884,0.048605031699999995,0.06793810713
1609.0,-0.002208994590000001,0.030425565305,0.049192590885,0.061091264745
1610.0,0.0021106766355,0.045822847675,0.05106791333,0.069216405945
1611.0,-0.0006599618308,0.04340296171,0.04866641027,0.06521251508
1612.0,-0.003882076107,0.040025180009999994,0.048301750385,0.063274253575
1613.0,-0.0080145615535,0.03868886623,0.049202089745,0.06322598307
1614.0,-0.0038608387485,0.034928625025,0.049881513275,0.062765246755
1615.0,-0.0061259517414999996,0.03768784584,0.050727949335,0.063513812935
1616.0,-0.0107375840885,0.032976255485,0.050454477355,0.061255583945
1617.0,-0.011213327276,0.032146284785,0.052478450925,0.062631816485
1618.0,-0.008463191323,0.036253958079999996,0.05126776199,0.06339807613500001
1619.0,-0.0077810342575,0.03535869491,0.049490747295,0.061384065715
1620.0,-0.011255223360999999,0.030338092105,0.05162474597,0.060972161735
1621.0,-0.01388046232,0.030935138685000002,0.0527455311,0.06271679986
1622.0,-0.01583621909,0.02793206318,0.052009171735,0.06112543911
1623.0,-0.018174116305,0.028416881915,0.051974891005,0.06206642004
1624.0,-0.01808092792,0.026399760195,0.052176224395,0.06121285428
1625.0,-0.022287793925,0.02290343336,0.053249326050000004,0.06216537735
1626.0,-0.020987642595,0.02508894343,0.05261994208,0.061989967245
1627.0,-0.020973816545000003,0.024393624930000003,0.052677474094999996,0.061997738605
1628.0,-0.024951796659999997,0.02265683994,0.051613286575,0.06170302911
1629.0,-0.024727807185,0.02631203763,0.0519851179,0.06368436130999999
1630.0,-0.02860705526,0.018709738635,0.05342803301,0.063679386315
1631.0,-0.032300484495000004,0.02117478574,0.05224511262,0.064974677175
1632.0,-0.029891026305,0.032317904865000004,0.046355504660000005,0.08196380388999999
1633.0,-0.04694265916,-0.00646031771,0.06023444999500001,0.087612952535
1634.0,-0.03480658814,0.023900402260000002,0.055148031619999996,0.070479759305
1635.0,-0.040935064895,0.019948732105,0.052286576259999995,0.069356451005
1636.0,-0.04303914541,0.014523122195,0.055785745015,0.07194626178499999
1637.0,-0.04017643229,0.01867891894,0.05157316436,0.06799146274
1638.0,-0.040357382155,0.01540259932,0.05446530614,0.069630069825
1639.0,-0.046217466655,0.012699527545,0.05489098917,0.072924014065
1640.0,-0.04703125406,0.017039715085,0.05387816543,0.07357941972000001
1641.0,-0.04627323161,0.0126780075025,0.056285779405,0.074043533345
1642.0,-0.047252184315,0.014651864130000001,0.055494513545,0.0743939674
1643.0,-0.047505520215,0.01623816644,0.056241266045,0.07541503499499999
1644.0,-0.04848836739,0.0111999446045,0.053589467755,0.07317297911500001
1645.0,-0.046475178925,0.014034699113,0.053495763259999995,0.07237212277999999
1646.0,-0.04798748261,0.01139637235,0.05492199088,0.07385106984
1647.0,-0.044903874795,0.01257203388,0.054016022135,0.07140089983
1648.0,-0.04265772969,0.0106198979425,0.05499489763,0.0704605167
