Time (s),Acceleration x (m/s^2),Acceleration y (m/s^2),Acceleration z (m/s^2),Absolute acceleration (m/s^2),Sound pressure level (dB),Attitude x (m/s^2),Attitude y (m/s^2),Attitude z (m/s^2),Absolute Attitude (m/s^2),Tilt up/down (deg)_x,Tilt left/right (deg)_x,Left Pupil X,Left Pupil Y,Right Pupil X,Right Pupil Y,Blinking,Looking Center,Looking Left,Looking Right,Gyroscope x (rad/s),Gyroscope y (rad/s),Gyroscope z (rad/s),Absolute (rad/s),Linear Acceleration x (m/s^2),Linear Acceleration y (m/s^2),Linear Acceleration z (m/s^2),Absolute Linear acceleration (m/s^2),Mouse Move,Key Press,Mouse Scroll,Mouse Click,PositionX,PositionY,Inclination (deg),Rotation (deg),Tilt up/down (deg)_y,Tilt left/right (deg)_y,Tilt up/down (deg),Tilt left/right (deg),isDistracted
0.0,-7.128012798,-2.20307829,6.253643558,9.734997594,-72.01522139,-7.128012798,-2.20307829,6.253643558,9.734997594,-19.40670608,-48.73844252,709.7142857142857,262.14285714285717,830.2857142857143,256.57142857142856,0.0,7.0,0.0,0.0,0.01834255645,0.1052932184,0.2629466463,0.28383807,0.02152138562,0.2298414898,0.01222971016,0.2311706,52.0,0.0,0.0,0.0,410.7548076923077,310.96597055288464,50.02989794,-107.1749816,-162.8250184,138.7384425,109.4067061,-107.1749816,0
1.0,-7.1589584575,-2.585347272,5.961695238,9.700180541,-65.619969485,-7.1589584575,-2.585347272,5.961695238,9.700180541,-23.74669665,-50.27060357,706.875,280.75,829.125,275.0,0.0,8.0,0.0,0.0,0.0724360963275,0.0868355938,-0.37092794025,0.44757105105,0.0391274289,0.0548036449999999,-0.04131335315,0.37102467785,78.0,0.0,0.0,0.0,173.38957331730768,357.57927684294873,51.958958375,-109.7235598,-160.27644020000002,140.27060360000002,113.74669665,-109.7235598,0
2.0,-6.4416926665,-5.4283910145,4.859230472,9.7742267345,-56.89499083,-6.4416926665,-5.4283910145,4.859230472,9.7742267345,-48.007916015,-53.134749455,714.0,247.0,844.3333333333334,249.66666666666663,0.0,6.0,0.0,0.0,-0.0856966176645,0.102613745335,-0.3407162779,0.3741344887,0.09057546856,-0.161445029315,-0.02927998684,0.220042574895,58.0,0.0,0.0,1.0,332.71047404661016,759.1898834745763,60.11740425,-129.9381597,-140.0618403,143.13474945000002,138.007916,-129.9381597,0
3.0,-6.195186162000001,-6.2295998925,4.289817514,9.77900505,-53.122587095,-6.195186162000001,-6.2295998925,4.289817514,9.77900505,-55.440541034999995,-55.309027615000005,736.8,208.4,887.4,214.2,0.0,2.0,3.0,0.0,0.0117964378499999,-0.0268709849515,0.116075120145,0.1278310083,0.027926233166,0.0013314855275499,-0.0223578064499999,0.036199734775,8.0,0.0,0.0,0.0,537.52783203125,579.36279296875,63.975453305,-135.15158359999998,-134.84841640000002,145.30902765000002,145.440541,-135.15158359999998,0
4.0,-6.862247529999999,-5.6266684005,3.9736925465,9.735711136,-53.378346375,-6.862247529999999,-5.6266684005,3.9736925465,9.735711136,-54.856531835,-59.913992095,724.1428571428571,221.57142857142856,877.5714285714286,224.1428571428571,1.0,0.0,6.0,0.0,-0.04912110776,0.13648999,0.08990292589,0.17215944575,0.0774211595,0.044709089235,0.030202582884,0.11909817435,11.0,1.0,0.0,0.0,553.0490056818181,554.5340909090909,65.86555843,-129.37330079999998,-140.62669920000002,149.91399205,144.8565318,-129.37330079999998,0
5.0,-7.678730527000001,-5.1633979525,3.1309083600000003,9.76875624,-69.47003957000001,-7.678730527000001,-5.1633979525,3.1309083600000003,9.76875624,-58.76820532,-67.81792239500001,709.8333333333334,231.83333333333337,862.1666666666666,235.16666666666663,0.0,5.0,1.0,0.0,0.0316542704645,0.0324236315425,0.0244558414705,0.054152409166,0.0075787768449999,0.035530892545,-0.049644047531,0.075782051635,38.0,0.0,0.0,0.0,629.0564350328947,420.2064144736842,71.30650316500001,-123.9177411,-146.08225879999998,157.8179224,148.7682053,-123.9177411,0
6.0,-7.684440711500001,-5.125400497999999,3.158944177,9.76213578,-74.154418045,-7.684440711500001,-5.125400497999999,3.158944177,9.76213578,-58.35316625,-67.65326062,692.2857142857143,245.1428571428571,845.7142857142857,248.1428571428571,3.0,4.0,0.0,0.0,-0.002268672304,-0.00151992251415,0.001606143411,0.006905680441,0.03428674263,0.03531585832,-0.007169385763,0.04976182629,0.0,0.0,0.0,0.0,0.0,0.0,71.11973377000001,-123.70265595,-146.297344,157.65326065,148.35316625000002,-123.70265595,0
7.0,-7.698644997500001,-5.1068757855,3.1496209175,9.7606261815,-72.86052584999999,-7.698644997500001,-5.1068757855,3.1496209175,9.7606261815,-58.336428729999994,-67.749859255,653.0,248.5,801.75,249.5,2.0,6.0,0.0,0.0,0.001076230076,0.007283669655,0.004662028353,0.0094053396335,0.03593629376,0.034140550775,-0.009671062518,0.05127557699,0.0,0.0,0.0,0.0,0.0,0.0,71.17454126,-123.5582165,-146.4417835,157.74985925,148.3364287,-123.5582165,1
8.0,-7.801256615,-4.8967069510000005,3.213425001,9.7559973155,-72.271746965,-7.801256615,-4.8967069510000005,3.213425001,9.7559973155,-56.713551205,-67.613152095,628.2857142857143,246.8571428571429,782.8571428571429,245.8571428571429,0.0,7.0,0.0,0.0,0.050380458315,0.02200666634,0.01278932416,0.058136755715,0.02346659618,0.05344980816,-0.0256092367,0.066913583925,59.0,0.0,0.0,0.0,654.5325741525423,321.12698622881356,70.768457485,-122.1137443,-147.8862557,157.6131521,146.71355119999998,-122.1137443,1
9.0,-7.861004427999999,-4.788558318,3.2688905425,9.7679264285,-67.99812221,-7.861004427999999,-4.788558318,3.2688905425,9.7679264285,-55.6804524,-67.42058033,620.0,251.8571428571429,777.7142857142857,250.8571428571429,0.0,7.0,0.0,0.0,0.0122421999249999,0.00279292911,0.006104421947,0.020618701465,0.03573525846,0.02443690149,-0.00376371800025,0.04516495393,44.0,0.0,0.0,0.0,682.6535866477273,278.6349431818182,70.44843470999999,-121.34777875,-148.65222125,157.42058035000002,145.6804524,-121.34777875,1
10.0,-7.9308444885,-4.746652814,3.1484938495,9.7643280165,-71.11658017,-7.9308444885,-4.746652814,3.1484938495,9.7643280165,-56.44336006,-68.34721770499999,624.5,256.25,785.625,257.0,0.0,8.0,0.0,0.0,0.003321736243,0.0044246388385,1.2668104599999962e-05,0.00746460073,0.0281106153649999,0.03091925948,-0.023681209061,0.05323860279,0.0,0.0,0.0,0.0,0.0,0.0,71.188920665,-120.9007661,-149.0992339,158.3472177,146.44336005,-120.9007661,1
11.0,-7.943981875,-4.7252121065,3.1412060635000003,9.76231748,-73.86312318,-7.943981875,-4.7252121065,3.1412060635000003,9.76231748,-56.385900015,-68.425245295,626.7142857142857,254.8571428571429,787.4285714285714,257.14285714285717,0.0,7.0,0.0,0.0,-0.01240921174,0.0096273496924999,0.0014797808815,0.016206172775,0.03612912003,0.0344556698349999,-0.004902165155,0.050259147965,0.0,0.0,0.0,0.0,0.0,0.0,71.23001486000001,-120.74491805,-149.25508195,158.42524525,146.3859,-120.74491805,1
12.0,-7.95753164,-4.7311717715,3.10233249,9.7637550065,-71.670201495,-7.95753164,-4.7311717715,3.10233249,9.7637550065,-56.7463726,-68.70110879,623.5714285714286,252.28571428571428,783.8571428571429,254.8571428571429,0.0,7.0,0.0,0.0,0.0039799960065,-0.0001029057845,-0.000327647202,0.007364010912,0.03010002157,0.034200338555,-0.0161544179765,0.0496472118249999,0.0,0.0,0.0,0.0,0.0,0.0,71.47370631,-120.73372485,-149.26627515,158.7011088,146.7463726,-120.73372485,1
13.0,-7.955620907,-4.729840716,3.1027052445,9.7616637625,-74.46717165,-7.955620907,-4.729840716,3.1027052445,9.7616637625,-56.73571992,-68.694135195,620.25,249.625,780.25,251.375,0.0,8.0,0.0,0.0,0.00157571295,-6.246958020000002e-05,-0.0008251385361,0.002018162075,0.0348301668,0.0326400262549999,-0.012991366665,0.04948782714,0.0,0.0,0.0,0.0,0.0,0.0,71.46729347499999,-120.73267575,-149.26732420000002,158.6941352,146.7357199,-120.73267575,1
14.0,-7.951883091499999,-4.7255848605,3.116180164,9.760849162,-75.17523734,-7.951883091499999,-4.7255848605,3.116180164,9.760849162,-56.598047245,-68.60080414,618.8571428571429,252.0,777.1428571428571,253.71428571428572,0.0,7.0,0.0,0.0,0.000505921707,-0.0003838233885,0.00059430393655,0.002666948813,0.035949432795,0.03204375644,-0.01361029731,0.050099905845,0.0,0.0,0.0,0.0,0.0,0.0,71.38224565499999,-120.7218482,-149.2781518,158.60080415,146.59804724999998,-120.7218482,1
15.0,-7.950685582,-4.722382696,3.130440216,9.7628892575,-74.262405395,-7.950685582,-4.722382696,3.130440216,9.7628892575,-56.45987196,-68.50884967,619.7142857142857,256.0,779.1428571428571,257.7142857142857,5.0,2.0,0.0,0.0,0.0020494939915,-0.003022837163,-0.000401314386775,0.003704361909,0.03429971542,0.031436589015,-0.012367506015,0.048156583385,0.0,0.0,0.0,0.0,0.0,0.0,71.29794602999999,-120.7085847,-149.29141529999998,158.50884965,146.45987195,-120.7085847,1
16.0,-7.945854451500001,-4.7177306055,3.142522444,9.760594304,-76.26936412500001,-7.945854451500001,-4.7177306055,3.142522444,9.760594304,-56.33211342,-68.42160608,622.8571428571429,255.8571428571429,783.2857142857143,257.42857142857144,0.0,7.0,0.0,0.0,-0.00254620476095,0.00324755392995,0.00023297113695,0.0041539359184,0.03647398537,0.03457321607,-0.009293309459,0.0511441887099999,0.0,0.0,0.0,0.0,0.0,0.0,71.21846426,-120.6990711,-149.3009289,158.42160605,146.3321134,-120.6990711,1
17.0,-7.9533462255,-4.721013484,3.1207442025,9.7612917905,-74.93544385999999,-7.9533462255,-4.721013484,3.1207442025,9.7612917905,-56.53401791,-68.57588888000001,626.5714285714286,258.57142857142856,789.4285714285714,261.57142857142856,3.0,4.0,0.0,0.0,0.0019726005185,-0.0020331904345,0.000279319042905,0.0028730273824999,0.0357265793549999,0.030597272805,-0.01500368593,0.04937834216,0.0,0.0,0.0,0.0,0.0,0.0,71.35483291,-120.69286855,-149.3071314,158.57588885,146.53401795000002,-120.69286855,1
18.0,-7.949314903,-4.714810207499999,3.1399880085,9.7611783825,-73.382431215,-7.949314903,-4.714810207499999,3.1399880085,9.7611783825,-56.337048945,-68.445926475,625.7142857142857,259.85714285714283,786.5714285714286,262.57142857142856,6.0,1.0,0.0,0.0,0.00095136108,-0.001093544406,-0.000142283193835,0.001465827618,0.035106436275,0.03134587119,-0.015814052695,0.04970394752,0.0,0.0,0.0,0.0,0.0,0.0,71.235370295,-120.6725625,-149.32743745,158.44592645,146.33704895,-120.6725625,1
19.0,-7.947581742000001,-4.7180578655000005,3.1438373564999997,9.7625777735,-73.13376473,-7.947581742000001,-4.7180578655000005,3.1438373564999997,9.7625777735,-56.322892975,-68.41764853000001,621.25,249.25,778.875,250.125,5.0,3.0,0.0,0.0,-0.0011057658214,0.0016902007788999,-2.6043534000000097e-06,0.00295325416505,0.03511656572,0.028592434535,-0.015563892185,0.0479294729549999,0.0,0.0,0.0,0.0,0.0,0.0,71.21428714000001,-120.69536475,-149.30463525,158.41764855,146.32289294999998,-120.69536475,1
20.0,-7.9580291345,-4.707573785,3.1233843005,9.7594599485,-75.84615136,-7.9580291345,-4.707573785,3.1233843005,9.7594599485,-56.43649525,-68.57087577499999,619.5714285714286,264.0,779.8571428571429,264.7142857142857,5.0,2.0,0.0,0.0,-0.002923111244,0.002193219795165,0.0021366378535,0.005670829025,0.03573811328,0.032152852875,-0.018366660425,0.0514667668,0.0,0.0,0.0,0.0,0.0,0.0,71.33486476499999,-120.6064431,-149.39355690000002,158.57087575,146.43649525,-120.6064431,1
21.0,-7.990391249,-4.7088358665,3.053711539,9.7644596525,-73.759302515,-7.990391249,-4.7088358665,3.053711539,9.7644596525,-57.03630405,-69.084498475,615.75,263.375,776.25,263.625,5.0,3.0,0.0,0.0,0.0011343878175,0.0007351038035,0.0024398761554999,0.013115827535,0.031384975875,0.028114450455,-0.020072757565,0.04685456593,0.0,0.0,0.0,0.0,0.0,0.0,71.775720465,-120.51136245,-149.48863749999998,159.08449845,147.03630405,-120.51136245,1
22.0,-7.9886566205,-4.684937035,3.08293606,9.7607288345,-73.65783252,-7.9886566205,-4.684937035,3.08293606,9.7607288345,-56.65300565,-68.89768378,617.2857142857143,263.42857142857144,777.1428571428571,264.0,5.0,2.0,0.0,0.0,0.00039321990145,-0.0010647605717,-0.0008312049168,0.0020996443825,0.02934476195,0.035132040775,-0.02650971078,0.053054641495,0.0,1.0,0.0,0.0,0.0,0.0,71.58780319,-120.3894385,-149.61056150000002,158.89768379999998,146.65300565,-120.3894385,1
23.0,-7.9804413515,-4.6879205365,3.102461633,9.7616248635,-73.021134125,-7.9804413515,-4.6879205365,3.102461633,9.7616248635,-56.50344615,-68.75599862,619.5,264.5,780.0,265.25,6.0,2.0,0.0,0.0,0.00114525931525,-0.00136739933,-7.41349564e-05,0.0018025654625,0.030702101345,0.031160571775,-0.02610580576,0.0509454343199999,0.0,0.0,0.0,0.0,0.0,0.0,71.468721165,-120.43109355,-149.56890645,158.7559986,146.50344615,-120.43109355,1
24.0,-7.979851402,-4.685516712,3.110227836,9.762459438,-72.999430695,-7.979851402,-4.685516712,3.110227836,9.762459438,-56.42084288,-68.71013258,610.5714285714286,259.0,772.0,260.85714285714283,1.0,6.0,0.0,0.0,0.00025325372135,-0.00064788010275,-0.000486596298,0.0008542641472499,0.0277571741099999,0.03341295364,-0.02760733634,0.051477402245,0.0,0.0,0.0,0.0,0.0,0.0,71.42441195,-120.4120257,-149.5879743,158.7101326,146.4208429,-120.4120257,1
25.0,-7.971900289,-4.688906721,3.115974709,9.759425202,-74.37309781,-7.971900289,-4.688906721,3.115974709,9.759425202,-56.394321265,-68.650963485,617.25,266.375,773.75,266.625,8.0,0.0,0.0,0.0,0.00071982768205,-0.00127808711095,-0.00145133935875,0.0029915474,0.033277209385,0.031753866395,-0.025449515995,0.05266309291,0.0,0.0,0.0,0.0,0.0,0.0,71.380693025,-120.46316795,-149.53683205,158.6509635,146.39432125000002,-120.46316795,1
26.0,-7.9763454575,-4.711861926499999,3.088939752,9.765521377,-73.081572755,-7.9763454575,-4.711861926499999,3.088939752,9.765521377,-56.752560900000006,-68.830459475,611.8571428571429,264.7142857142857,769.4285714285714,264.2857142857143,6.0,1.0,0.0,0.0,-0.005651621414,-0.003101449843,0.00046023088405,0.0150937096099999,0.024277868695,0.03232490146,-0.0284782762499999,0.05019948148,0.0,0.0,0.0,0.0,0.0,0.0,71.560025615,-120.5716108,-149.42838915,158.8304595,146.7525609,-120.5716108,0
27.0,-7.968912384999999,-4.70787463,3.0887709855,9.7574697095,-73.034201015,-7.968912384999999,-4.70787463,3.0887709855,9.7574697095,-56.73172475,-68.813541305,619.7142857142857,265.85714285714283,778.0,265.2857142857143,5.0,2.0,0.0,0.0,-0.0040651115075,0.0057991119135,-0.000624409502585,0.007459348457,0.02935439839,0.040108755065,-0.02894982266,0.0578291855599999,0.0,0.0,0.0,0.0,0.0,0.0,71.54531814500001,-120.57374935,-149.42625065,158.8135413,146.73172475,-120.57374935,0
28.0,-7.973904944,-4.7078672925,3.0811823545,9.759195657,-74.44611524,-7.973904944,-4.7078672925,3.0811823545,9.759195657,-56.79542059,-68.87313899,622.5714285714286,267.0,781.2857142857143,266.0,5.0,2.0,0.0,0.0,0.0075437151209999,-0.0011495110675,0.0020759815340999,0.01169506024,0.0315439685499999,0.0335232223849999,-0.0280004899349999,0.05407857464,0.0,0.0,0.0,0.0,0.0,0.0,71.595532115,-120.55776395,-149.44223605000002,158.87313895,146.7954206,-120.55776395,0
29.0,-7.979281997499999,-4.686213792,3.1197976415,9.765390042,-72.932773225,-7.979281997499999,-4.686213792,3.1197976415,9.765390042,-56.34680753,-68.64508316,625.125,266.25,784.375,266.5,2.0,6.0,0.0,0.0,0.0012154777254999,-0.0036305493455,-0.0016451210177,0.0043338546385,0.021519691205,0.03649032031,-0.029670480525,0.05192792109,0.0,0.0,0.0,0.0,0.0,0.0,71.36878167500001,-120.42564625,-149.57435370000002,158.64508315,146.34680755,-120.42564625,0
30.0,-7.9712516385,-4.6871867685,3.1278749625,9.7618740835,-76.34629363,-7.9712516385,-4.6871867685,3.1278749625,9.7618740835,-56.283852015,-68.57523255000001,621.1428571428571,266.85714285714283,779.7142857142857,267.7142857142857,4.0,3.0,0.0,0.0,-0.0008353777045,0.001822189293,0.000316115847794,0.00240498022865,0.026861334815,0.0362378839699999,-0.02736031441,0.052776866865,0.0,0.0,0.0,0.0,0.0,0.0,71.311826185,-120.4560138,-149.5439862,158.57523255,146.283852,-120.4560138,0
31.0,-7.976270613,-4.686510234,3.115374487,9.761652615,-75.299112995,-7.976270613,-4.686510234,3.115374487,9.761652615,-56.385891445,-68.66536385500001,624.25,268.125,783.625,268.5,4.0,4.0,0.0,0.0,0.00045428581435,-0.00110802332305,0.0005038918302,0.001323120907,0.02726450033,0.0353134850399999,-0.028489342965,0.052940609805,0.0,0.0,0.0,0.0,0.0,0.0,71.38881961,-120.43664305,-149.56335695,158.66536385,146.38589145,-120.43664305,0
32.0,-7.975029077,-4.680679712,3.1276342865,9.7617607025,-75.81079691,-7.975029077,-4.680679712,3.1276342865,9.7617607025,-56.249137245,-68.585961405,621.7142857142857,267.7142857142857,780.8571428571429,269.0,1.0,6.0,0.0,0.0,0.00014300927905,-0.0011245366117,-0.0005232337417,0.0015417063585999,0.025825334315,0.03788052736,-0.0279343906049999,0.05376366199,0.0,0.0,0.0,0.0,0.0,0.0,71.31309100499999,-120.40939535,-149.59060465,158.58596139999997,146.2491372,-120.40939535,0
33.0,-7.977014654,-4.683699902000001,3.1240373545,9.763678832499998,-74.338329665,-7.977014654,-4.683699902000001,3.1240373545,9.763678832499998,-56.2966356,-68.613202145,622.375,269.625,781.875,270.25,3.0,5.0,0.0,0.0,-0.0011654104965,0.001225003264,0.00026975324782,0.0017434354119999,0.024541881945,0.03625748361,-0.02765735297,0.0517994974,0.0,0.0,0.0,0.0,0.0,0.0,71.339178815,-120.4193041,-149.58069590000002,158.61320215,146.29663555,-120.4193041,0
34.0,-7.980357702,-4.686140415,3.112636064,9.763939999,-72.54923199000001,-7.980357702,-4.686140415,3.112636064,9.763939999,-56.4070255,-68.69236832,619.4285714285714,271.7142857142857,780.2857142857143,271.57142857142856,1.0,6.0,0.0,0.0,0.0005047776024,-0.001226404234,0.0001305873522,0.001332636796,0.02382285213,0.03582580431,-0.02937388911,0.0520945477,0.0,0.0,0.0,0.0,0.0,0.0,71.4102992,-120.4218529,-149.5781471,158.6923683,146.4070255,-120.4218529,0
35.0,-7.974731167,-4.6785048225,3.1324712865,9.76202768,-76.26859053999999,-7.974731167,-4.6785048225,3.1324712865,9.76202768,-56.19593366,-68.55512066,620.875,271.0,781.75,271.25,1.0,7.0,0.0,0.0,0.0019982668464999,-0.00226830069525,-0.00065191357405,0.0032834354584999,0.025115098255,0.03804606949,-0.02864388717,0.053877766005,0.0,0.0,0.0,0.0,0.0,0.0,71.28364207999999,-120.39870605,-149.6012939,158.55512065,146.19593365,-120.39870605,0
36.0,-7.9701172325,-4.676569142,3.147607458,9.7621977135,-74.289550295,-7.9701172325,-4.676569142,3.147607458,9.7621977135,-56.057117215000005,-68.44964222499999,627.8571428571429,272.0,789.1428571428571,273.0,0.0,7.0,0.0,0.0,0.000356043447,-0.000293260123,-0.000105747055,0.002524028672,0.0249961762049999,0.03785611523,-0.028621025695,0.05367951376,0.0,0.0,0.0,0.0,0.0,0.0,71.19016596,-120.40282965,-149.59717035,158.4496422,146.0571172,-120.40282965,0
37.0,-7.9726854215,-4.6778312235,3.141907546,9.763066369,-74.77200109500001,-7.9726854215,-4.6778312235,3.141907546,9.763066369,-56.112393999999995,-68.491407215,629.3333333333334,274.3333333333333,789.8333333333334,275.8333333333333,6.0,0.0,0.0,0.0,-0.0022923068905,0.0012283303751,-0.0003700870969,0.002635024583,0.02248025689,0.04088123531,-0.02780866687,0.054322599415,0.0,0.0,0.0,0.0,0.0,0.0,71.22723406,-120.401519,-149.598481,158.4914072,146.112394,-120.401519,0
38.0,-7.9704078045,-4.680035463499999,3.1393980585,9.7614565505,-73.994055865,-7.9704078045,-4.680035463499999,3.1393980585,9.7614565505,-56.146028605,-68.501438465,629.1428571428571,273.57142857142856,789.7142857142857,275.2857142857143,5.0,2.0,0.0,0.0,0.001260760128535,-0.0019663462015,0.00028513981815,0.0025525404559999,0.0249092304,0.04073860911,-0.0268639087349999,0.054862732435,0.0,0.0,0.0,0.0,0.0,0.0,71.23957354000001,-120.42044205,-149.57955795,158.50143845,146.14602860000002,-120.42044205,0
39.0,-7.970975741,-4.671481193,3.155351648,9.7629624305,-77.32213124,-7.970975741,-4.671481193,3.155351648,9.7629624305,-55.96294348,-68.40360973,628.875,272.25,789.625,274.375,1.0,7.0,0.0,0.0,3.549722754e-05,-0.0007522602648,0.0001779834126,0.00086879911125,0.0224419175,0.042841663405,-0.0252965396449999,0.0546131175,0.0,0.0,0.0,0.0,0.0,0.0,71.14367633,-120.37292145,-149.62707855000002,158.4036097,145.9629435,-120.37292145,0
40.0,-7.970924376999999,-4.6715619075,3.1517150925,9.761784414,-76.84825289,-7.970924376999999,-4.6715619075,3.1517150925,9.761784414,-55.99404338,-68.42608615,628.4285714285714,273.42857142857144,790.2857142857143,275.42857142857144,0.0,7.0,0.0,0.0,-0.0018074378625,0.0009372172474,-0.00034806672565,0.0020777903655,0.022225713835,0.04712277687,-0.02313140741,0.05703537116,0.0,0.0,0.0,0.0,0.0,0.0,71.163868905,-120.37351425,-149.62648575,158.42608615,145.99404335,-120.37351425,0
41.0,-7.9746313745,-4.6829000945,3.1250763705,9.7616808905,-74.383679115,-7.9746313745,-4.6829000945,3.1250763705,9.7616808905,-56.283321685,-68.60091835,627.625,273.75,789.625,275.5,0.0,8.0,0.0,0.0,-0.001544098591435,0.0007713611849999,-0.0002705785092,0.002724781012,0.023603787915,0.04419837508,-0.02434281578,0.05570948674,0.0,0.0,0.0,0.0,0.0,0.0,71.328779855,-120.42250525,-149.57749475,158.60091835,146.2833217,-120.42250525,0
42.0,-7.972394849,-4.677301442999999,3.1379716130000004,9.761309026,-75.73445698500001,-7.972394849,-4.677301442999999,3.1379716130000004,9.761309026,-56.14262151,-68.515180415,627.2857142857143,273.85714285714283,788.7142857142857,275.7142857142857,0.0,7.0,0.0,0.0,0.0011943821387,-0.0016855424285,2.972409760000004e-05,0.002148850495,0.02350868467,0.045945471525,-0.0231240439299999,0.0566021212299999,0.0,0.0,0.0,0.0,0.0,0.0,71.248126075,-120.3995979,-149.6004021,158.51518040000002,146.1426215,-120.3995979,0
43.0,-7.968332708,-4.677379222,3.1473330285,9.761041079,-74.93091344999999,-7.968332708,-4.677379222,3.1473330285,9.761041079,-56.06403573,-68.44696316,628.125,274.25,789.5,276.125,0.0,8.0,0.0,0.0,-0.00067636463575,7.087168899999998e-05,-0.0001190174736299,0.0019078589375,0.024496548825,0.04609180383,-0.02119904022,0.056381459285,0.0,0.0,0.0,0.0,0.0,0.0,71.189554265,-120.41276405,-149.58723595,158.44696315,146.06403575000002,-120.41276405,0
44.0,-7.9740106065,-4.6817025845,3.1300395785,9.7621890535,-75.03325825499999,-7.9740106065,-4.6817025845,3.1300395785,9.7621890535,-56.23455405,-68.56849478500001,629.0,275.0,790.8571428571429,276.85714285714283,0.0,7.0,0.0,0.0,-0.0010418829814999,0.000755867042,0.0004037387256999,0.003691974482,0.02473514962,0.045027768225,-0.01863556355,0.054653522065,0.0,0.0,0.0,0.0,0.0,0.0,71.299038385,-120.4180551,-149.5819449,158.56849475,146.23455405,-120.4180551,0
45.0,-7.9735938265,-4.6760804525,3.1393936565,9.762157767,-74.09982543,-7.9735938265,-4.6760804525,3.1393936565,9.762157767,-56.12366297,-68.509259735,629.1428571428571,275.57142857142856,790.8571428571429,277.14285714285717,4.0,3.0,0.0,0.0,-3.882214499999995e-05,-0.00104108645895,-0.00064775495055,0.002521041726,0.02302870852,0.04644123516,-0.02097127111,0.0559269801099999,0.0,0.0,0.0,0.0,0.0,0.0,71.24100677999999,-120.3893117,-149.6106883,158.50925975,146.12366300000002,-120.3893117,0
46.0,-7.9704400905,-4.678626628,3.140202269,9.7610628255,-74.89084969,-7.9704400905,-4.678626628,3.140202269,9.7610628255,-56.131268085,-68.49649898499999,626.0,275.0,787.75,276.75,2.0,6.0,0.0,0.0,-0.0011367731720999,0.0010530201539999,3.609343830000001e-05,0.0028164260579999,0.0257101785599999,0.0449862357999999,-0.01972278738,0.0554443925199999,0.0,0.0,0.0,0.0,0.0,0.0,71.23380743,-120.41281745,-149.58718255,158.49649895,146.13126805000002,-120.41281745,0
47.0,-7.9732548255,-4.682078274,3.1273789345000003,9.760901741,-70.43150824,-7.9732548255,-4.682078274,3.1273789345000003,9.760901741,-56.259225575,-68.583216205,628.5714285714286,275.0,790.1428571428571,276.7142857142857,2.0,5.0,0.0,0.0,0.0009396919595,-0.0016770152463,0.0002313354612,0.00235575806395,0.026042340535,0.0449403351499999,-0.01945894897,0.055525641865,0.0,0.0,0.0,0.0,0.0,0.0,71.312964075,-120.4224362,-149.57756369999998,158.58321619999998,146.25922555,-120.4224362,0
48.0,-7.969544893,-4.675534529,3.1449365415,9.760373827,-74.02353836500001,-7.969544893,-4.675534529,3.1449365415,9.760373827,-56.073771155,-68.464848485,627.125,275.125,788.75,276.75,1.0,7.0,0.0,0.0,-0.00018692755265,-0.0001963435171999,8.163817385e-05,0.0008778562287,0.027342256835,0.04400355388,-0.019215183135,0.05527518037,0.0,0.0,0.0,0.0,0.0,0.0,71.203082465,-120.3990931,-149.6009069,158.46484850000002,146.07377115,-120.3990931,0
49.0,-7.9693438405,-4.677062234,3.144440514,9.7607826285,-72.232706165,-7.9693438405,-4.677062234,3.144440514,9.7607826285,-56.086635595,-68.467441615,625.8571428571429,277.7142857142857,787.4285714285714,279.7142857142857,1.0,6.0,0.0,0.0,-0.001023406907,0.0010437214765,-0.0002230891772999,0.0037527375605,0.0265071425899999,0.04362126063,-0.020613306855,0.05505346736,0.0,0.0,0.0,0.0,0.0,0.0,71.206972435,-120.40789375,-149.5921062,158.4674416,146.0866356,-120.40789375,0
50.0,-7.971527535,-4.682195677,3.1339490960000003,9.761652835,-76.7017075,-7.971527535,-4.682195677,3.1339490960000003,9.761652835,-56.16172136,-68.50793599,631.5,277.75,793.25,279.625,5.0,3.0,0.0,0.0,0.0005014309634,-0.0012926998907,0.0004587697620499,0.0016697895680999,0.027975837045,0.040391743105,-0.01901495039,0.05269287941,0.0,0.0,13.0,0.0,742.953125,276.1875,71.2465444,-120.4269196,-149.5730804,158.507936,146.1617214,-120.4269196,0
51.0,-7.9690341905,-4.676228674,3.1485114605,9.761442152,-73.02515649,-7.9690341905,-4.676228674,3.1485114605,9.761442152,-56.047567060000006,-68.441359135,628.7142857142857,277.2857142857143,790.7142857142857,279.2857142857143,0.0,7.0,0.0,0.0,0.000397611210845,-0.0004894960050949,-0.0004399956864,0.00092645428345,0.026766512465,0.043842675195,-0.017589588395,0.054310484055,0.0,0.0,31.0,0.0,742.953125,276.1875,71.18304975000001,-120.40440805,-149.59559185,158.4413591,146.04756705,-120.40440805,0
52.0,-7.967993707,-4.678459329,3.148126966,9.7615404475,-76.49918013,-7.967993707,-4.678459329,3.148126966,9.7615404475,-56.0634779,-68.44120108999999,628.7142857142857,279.42857142857144,790.8571428571429,281.42857142857144,3.0,4.0,0.0,0.0,-0.00189258940715,0.00203656412755,-0.0006004486669,0.003430105756,0.027178265365,0.044580751455,-0.01511740568,0.054358898995,0.0,0.0,17.0,0.0,742.953125,276.1875,71.185622945,-120.41959865,-149.58040135,158.4412011,146.0634779,-120.41959865,0
53.0,-7.971451223,-4.682242638,3.1358745035,9.7622330715,-71.812623205,-7.971451223,-4.682242638,3.1358745035,9.7622330715,-56.18830633,-68.52591737,629.125,279.625,791.125,281.5,3.0,5.0,0.0,0.0,0.001043579354,-0.0015902842566499,-5.358930700000001e-05,0.002008848846,0.0284580316949999,0.042896432325,-0.012226983665,0.0529292702699999,0.0,0.0,45.0,0.0,742.953125,276.1875,71.262961955,-120.4289696,-149.57103039999998,158.52591735,146.1883063,-120.4289696,0
54.0,-7.967449251,-4.678013198,3.1513614165000003,9.7619234115,-72.24519876,-7.967449251,-4.678013198,3.1513614165000003,9.7619234115,-56.033670425,-68.41973745000001,629.0,279.1666666666667,791.5,281.0,4.0,2.0,0.0,0.0,-6.841129950000004e-05,-0.000641907933025,-0.0003357935621499,0.00132615103405,0.027883353585,0.04588455443,-0.010210964031,0.05467857982,0.0,0.0,43.0,0.0,742.953125,276.1875,71.16633987,-120.4189277,-149.58107230000002,158.41973745,146.0336704,-120.4189277,0
55.0,-7.969317425,-4.6809658810000006,3.137471183,9.76039069,-71.08449124,-7.969317425,-4.6809658810000006,3.137471183,9.76039069,-56.167589395,-68.51074593999999,632.8571428571429,278.2857142857143,794.8571428571429,280.7142857142857,2.0,5.0,0.0,0.0,-0.00138538638285,0.0018553656855,0.0001401634898999,0.003593887814,0.029309787575,0.0478500730399999,-0.0083617218895,0.056737136445,0.0,0.0,35.0,0.0,742.953125,276.1875,71.24939460499999,-120.4288459,-149.57115405,158.5107459,146.1675894,-120.4288459,0
56.0,-7.9691515935,-4.681695247,3.1449512165,9.763014804,-73.27593369499999,-7.9691515935,-4.681695247,3.1449512165,9.763014804,-56.108643185000005,-68.46379174,631.75,278.75,794.0,280.75,0.0,4.0,0.0,0.0,0.0004900083282,-0.00144233758,-0.00063393392035,0.002060745568,0.027704675285,0.0455507901999999,-0.007743834571,0.053976791235,0.0,0.0,11.0,0.0,742.953125,276.1875,71.208256465,-120.43327005,-149.56672995,158.46379174999998,146.10864320000002,-120.43327005,0
57.0,-7.9643762295,-4.679612813,3.1515991569999997,9.760258309,-74.40266895,-7.9643762295,-4.679612813,3.1515991569999997,9.760258309,-56.040745035,-68.41070049000001,636.0,279.2,798.6,281.4,3.0,2.0,0.0,0.0,-0.0011228091933499,0.00152692472885,-0.0003549379243,0.0030653705005,0.02917209138,0.049332769285,-0.0069344308795,0.05776414015,0.0,0.0,0.0,0.0,0.0,0.0,71.1615315,-120.43713315,-149.56286685,158.41070050000002,146.040745,-120.43713315,0
58.0,-7.9717755485,-4.685274568500001,3.1327193005,9.7629410255,-74.49587180500001,-7.9717755485,-4.685274568500001,3.1327193005,9.7629410255,-56.23214347,-68.546333535,638.0,280.6,800.0,283.4,5.0,0.0,0.0,0.0,0.000568436908,-0.0005021062065,0.0003365073666699,0.003343466262,0.028190705025,0.0472550787199999,-0.0041178672276499,0.05557731719,0.0,0.0,19.0,0.0,742.953125,276.1875,71.28391829,-120.4441631,-149.55583685,158.54633355,146.23214345000002,-120.4441631,0
59.0,-7.965435791,-4.6780939125,3.153317642,9.7609544145,-73.839328225,-7.965435791,-4.6780939125,3.153317642,9.7609544145,-56.017708925,-68.402607145,633.5,280.5,795.3333333333334,282.8333333333333,2.0,4.0,0.0,0.0,0.001225763811,-0.001493697226,-0.00076846333995,0.00212697559,0.028155157395,0.049711087005,-0.0068099683085,0.057630997645,0.0,0.0,0.0,0.0,0.0,0.0,71.15225367,-120.4256908,-149.5743092,158.40260715,146.0177089,-120.4256908,0
60.0,-7.96588926,-4.6831304975000005,3.1511119345000003,9.7630315765,-75.04074455,-7.96588926,-4.6831304975000005,3.1511119345000003,9.7630315765,-56.06491505,-68.41745942,633.125,282.25,794.75,284.625,7.0,1.0,0.0,0.0,-0.0024397086884999,0.003065943969,9.715948458e-05,0.003950481217,0.02881065893,0.04554310283,-0.00487966484,0.05411277951,0.0,0.0,0.0,0.0,0.0,0.0,71.17008775,-120.45119025,-149.54880975,158.41745939999998,146.06491505,-120.45119025,0
61.0,-7.970921442,-4.6796040075,3.1387464725000003,9.761459741,-73.61567940500001,-7.970921442,-4.6796040075,3.1387464725000003,9.761459741,-56.149116595,-68.50675404,633.2857142857143,284.85714285714283,795.7142857142857,286.7142857142857,6.0,1.0,0.0,0.0,0.002047144509,-0.002253990157,0.00064875513325,0.0032391605349999,0.03021084351,0.044842185055,-0.007277656706,0.054557309545,0.0,0.0,29.0,0.0,742.953125,276.1875,71.24362073,-120.41652725,-149.58347275,158.506754,146.14911654999997,-120.41652725,0
62.0,-7.9640372285,-4.675914621,3.16521496,9.762615767500002,-73.458948515,-7.9640372285,-4.675914621,3.16521496,9.762615767500002,-55.905191875,-68.32521954500001,632.7142857142857,283.14285714285717,796.0,285.42857142857144,5.0,2.0,0.0,0.0,0.0005909327496,0.00012250091,-0.00033108034005,0.0020769136395,0.030366138675,0.044731976505,-0.00355550553,0.054271317535,0.0,0.0,9.0,0.0,742.953125,276.1875,71.081799415,-120.41841875,-149.58158125,158.32521955,145.9051919,-120.41841875,0
63.0,-7.972572421000001,-4.6845818915,3.131805025,9.76296794,-76.89691344,-7.972572421000001,-4.6845818915,3.131805025,9.76296794,-56.235954965000005,-68.55400028,630.125,283.5,794.25,286.25,6.0,2.0,0.0,0.0,-0.0023771985025,0.0034235882866,-0.0004162652476,0.005291065671,0.031436288055,0.04457734631,0.0002327363804499,0.05455523791,0.0,0.0,11.0,0.0,742.953125,276.1875,71.289634135,-120.4379473,-149.56205269999998,158.5540003,146.23595495,-120.4379473,0
64.0,-7.967041276,-4.6832992645,3.140508984,9.7606287635,-76.16466249499999,-7.967041276,-4.6832992645,3.140508984,9.7606287635,-56.155159405000006,-68.48624960000001,638.0,282.2,801.2,284.8,4.0,1.0,0.0,0.0,0.0022938061255,-0.001930536296,-0.0010526221486499,0.0035949267714999,0.038438483585,0.03950607624,0.003080548241,0.055262451595,0.0,0.0,13.0,0.0,742.953125,276.1875,71.231036795,-120.44847165,-149.55152835,158.4862496,146.1551594,-120.44847165,0
65.0,-7.9619856125,-4.70021409,3.1321205450000003,9.7619556955,-75.06821393,-7.9619856125,-4.70021409,3.1321205450000003,9.7619556955,-56.321344405000005,-68.526163885,634.5714285714286,278.2857142857143,796.5714285714286,280.7142857142857,2.0,5.0,0.0,0.0,-0.006139741117,0.0042310811594999,-0.00110449458215,0.007547631529,0.03636937753,0.042602558145,0.0068502080459999,0.0577800011449999,0.0,0.0,18.0,0.0,742.953125,276.1875,71.28564698,-120.5546703,-149.4453297,158.5261639,146.3213444,-120.5546703,0
66.0,-7.9623290165,-4.712247889,3.1140258205,9.7622412105,-74.336469725,-7.9623290165,-4.712247889,3.1140258205,9.7622412105,-56.541830665,-68.63979931,631.8571428571429,276.7142857142857,793.1428571428571,278.0,1.0,6.0,0.0,0.0,-0.001601316425,-0.0031283289949999,0.00171940951,0.0057503800205,0.040454414365,0.037808193865,0.0110698798845,0.056481815945,0.0,0.0,0.0,0.0,0.0,0.0,71.39829378499999,-120.6177784,-149.38222159999998,158.6397993,146.54183065,-120.6177784,0
67.0,-7.956805209,-4.71007887,3.1285045355000003,9.7613185865,-73.13057413,-7.956805209,-4.71007887,3.1285045355000003,9.7613185865,-56.407256215,-68.535918515,623.0,275.0,782.6666666666666,275.8333333333333,4.0,2.0,0.0,0.0,-0.0004519312275,0.0008407262925049,-0.0011742306149,0.0030733625734999,0.04175681286,0.03869112056,0.0127024654865,0.05910245039,9.0,0.0,23.0,0.0,737.0633544921875,271.8782958984375,71.306827125,-120.6236631,-149.37633685,158.5359185,146.40725625,-120.6236631,0
68.0,-7.959578853,-4.717205227,3.1074160365,9.760285858,-75.35523144999999,-7.959578853,-4.717205227,3.1074160365,9.760285858,-56.62546114,-68.67438695999999,623.7142857142857,279.57142857142856,784.1428571428571,280.7142857142857,6.0,1.0,0.0,0.0,-0.0013264871599,0.002048927953,0.0015990608248499,0.0054087623905,0.045476788525,0.03836713322,0.01881441096,0.062715303205,0.0,0.0,48.0,0.0,736.0859375,270.640625,71.435391585,-120.65287145,-149.3471285,158.67438694999998,146.6254611,-120.65287145,0
69.0,-7.967000185,-4.695242076,3.122571285,9.760575881,-75.43191361,-7.967000185,-4.695242076,3.122571285,9.760575881,-56.37410294,-68.59789254,626.8571428571429,279.57142857142856,787.0,281.0,4.0,3.0,0.0,0.0,0.005615861712,-0.003187668615,-0.001718272094,0.006682184744,0.03835447858,0.04604142892,0.01282268023,0.06128050532,0.0,0.0,26.0,0.0,736.0859375,270.640625,71.3421123,-120.5123869,-149.4876131,158.5978925,146.3741029,-120.5123869,0
70.0,-7.939742162,-4.7087610225,3.1719582905,9.7608072315,-73.768755165,-7.939742162,-4.7087610225,3.1719582905,9.7608072315,-56.03474835,-68.223119255,628.1666666666666,278.0,787.1666666666666,280.5,5.0,1.0,0.0,0.0,0.0026378587284999,-0.00190648288395,-0.00086031439615,0.0045543612075,0.0488406573,0.036931389545,0.026035819745,0.066937183665,0.0,0.0,25.0,0.0,736.0859375,270.640625,71.0363281,-120.6705749,-149.32942509999998,158.22311925000002,146.03474835,-120.6705749,0
71.0,-7.9531847965,-4.7113967175,3.137390469,9.7618641395,-74.78522672,-7.9531847965,-4.7113967175,3.137390469,9.7618641395,-56.340022515,-68.47164061999999,631.0,280.4,790.8,282.4,4.0,1.0,0.0,0.0,-0.0018849313379999,0.005339406285,-0.00040403095205,0.006311471302,0.046392273325,0.036718679875,0.02326006622,0.06361699601,0.0,0.0,5.0,0.0,736.0859375,270.640625,71.25280703,-120.642145,-149.357855,158.4716406,146.3400225,-120.642145,0
72.0,-7.954392579,-4.7024124595,3.1478921595,9.7618852,-73.55100896,-7.954392579,-4.7024124595,3.1478921595,9.7618852,-56.2007808,-68.40919019,630.6,275.8,792.4,278.2,2.0,3.0,0.0,0.0,0.0005410081025,-0.002399580786,0.000341415283,0.005054047683,0.04566439816,0.038389255185,0.023819277875,0.06451561773,0.0,0.0,48.0,0.0,736.0859375,270.640625,71.18774834,-120.59035645,-149.40964355,158.40919015,146.20078080000002,-120.59035645,0
73.0,-7.944357564500001,-4.70313302,3.1666340684999996,9.7601168765,-74.00277051,-7.944357564500001,-4.70313302,3.1666340684999996,9.7601168765,-56.04746585,-68.26769197499999,631.8571428571429,273.2857142857143,793.7142857142857,276.57142857142856,0.0,7.0,0.0,0.0,-0.001530661348,0.002420198094,-0.0009356561659,0.0095714369845,0.04891183855,0.040584182425,0.02964265179,0.07030588969,0.0,0.0,19.0,0.0,736.0859375,270.640625,71.06796475,-120.6259171,-149.37408290000002,158.267692,146.04746584999998,-120.6259171,0
74.0,-7.961103623,-4.7207625355000005,3.1056637975,9.7626849045,-72.57890297,-7.961103623,-4.7207625355000005,3.1056637975,9.7626849045,-56.660097055,-68.68900172,633.6666666666666,274.6666666666667,794.3333333333334,277.1666666666667,0.0,6.0,0.0,0.0,0.0002096654369999,0.002582917889,0.00023707324975,0.0078738844985,0.049500693295,0.0341813351,0.0304859607349999,0.06783441563,0.0,0.0,27.0,0.0,736.0859375,270.640625,71.450989315,-120.66702115,-149.33297885,158.68900175,146.66009705,-120.66702115,0
75.0,-7.9564207145,-4.7094566345,3.1284927954999997,9.760693922,-72.66839599,-7.9564207145,-4.7094566345,3.1284927954999997,9.760693922,-56.48141458,-68.58666561,628.0,272.8,787.8,275.4,0.0,5.0,0.0,0.0,0.0002524917557,-0.00116725664775,2.1770863575e-05,0.00120880247545,0.04956415278,0.040087951585,0.03300278866,0.0718021011499999,0.0,0.0,55.0,0.0,736.0859375,270.640625,71.35294732,-120.6288469,-149.3711531,158.5866656,146.4814146,-120.6288469,0
76.0,-7.9549267625,-4.713172436500001,3.130112955,9.761791531,-72.1781728,-7.9549267625,-4.713172436500001,3.130112955,9.761791531,-56.411138475,-68.521303615,637.8333333333334,272.6666666666667,798.1666666666666,275.3333333333333,0.0,6.0,0.0,0.0,-0.00190269887715,0.0032320587494999,0.000547831455395,0.003993452311,0.051313616775,0.036713704015,0.0358262113249999,0.072568908935,0.0,0.0,15.0,0.0,736.0859375,270.640625,71.2977836,-120.6460963,-149.3539037,158.52130365,146.41113845,-120.6460963,0
77.0,-7.966113793,-4.7083266315,3.1115911780000003,9.762651088,-73.121960495,-7.966113793,-4.7083266315,3.1115911780000003,9.762651088,-56.54052338,-68.66421556,631.6,271.2,792.2,273.2,0.0,5.0,0.0,0.0,-0.00069980187745,-0.00171191453735,-0.000420793322575,0.0019319376993999,0.04796012968,0.038510940325,0.03292355029,0.069812757445,0.0,0.0,46.0,0.0,736.0859375,270.640625,71.41422677,-120.58497205,-149.41502795,158.66421555,146.54052339999998,-120.58497205,0
78.0,-7.948815940499999,-4.7083677225,3.149620918,9.76076934,-74.86866959,-7.948815940499999,-4.7083677225,3.149620918,9.76076934,-56.21989827,-68.38467080999999,639.0,275.6,798.8,277.8,2.0,3.0,0.0,0.0,0.0044560369115,-0.0009203759301535,-5.864711749999985e-06,0.004634491483,0.053935376425,0.037053186475,0.03947790069,0.07661496847,0.0,0.0,1.0,0.0,736.0859375,270.640625,71.17482599499999,-120.63977705,-149.36022295,158.3846708,146.2198983,-120.63977705,0
79.0,-7.9700189075,-4.6727520795,3.151085519,9.7614143515,-75.149807055,-7.9700189075,-4.6727520795,3.151085519,9.7614143515,-56.006136825,-68.427751355,636.5,278.6666666666667,797.0,281.3333333333333,6.0,0.0,0.0,0.0,0.0122677477975,0.0047163175025,0.0025033464075,0.0148534650164999,0.0501270332749999,0.03840421145,0.033735556565,0.0721998109,0.0,0.0,27.0,0.0,736.0859375,270.640625,71.16701713,-120.382736,-149.61726399999998,158.42775135,146.0061368,-120.382736,0
80.0,-7.9692807365,-4.6408771875,3.2020046325,9.762183823,-73.45453184,-7.9692807365,-4.6408771875,3.2020046325,9.762183823,-55.396139745,-68.11002464,633.2,280.2,793.4,282.4,4.0,1.0,0.0,0.0,0.00180942363885,-0.0015481420535,-0.0022305577085,0.0050974946865,0.048143474285,0.04160113361,0.03479181308,0.0725698499749999,0.0,0.0,27.0,0.0,736.0859375,270.640625,70.852487875,-120.2142298,-149.7857702,158.11002465,145.39613975,-120.2142298,0
81.0,-7.9611461815,-4.6465947095,3.2154164485,9.762664324,-73.1826687,-7.9611461815,-4.6465947095,3.2154164485,9.762664324,-55.317002,-68.00677129,635.4285714285714,277.14285714285717,796.8571428571429,279.14285714285717,0.0,7.0,0.0,0.0,-0.0004927634335,0.0017513484425999,-0.00017012340615,0.0029023575915,0.050133832095,0.0400948106,0.0388754483,0.075091140015,0.0,0.0,18.0,0.0,736.0859375,270.640625,70.77015102,-120.2703612,-149.7296388,158.00677125,145.317002,-120.2703612,0
82.0,-7.965834961,-4.658207325499999,3.187377696,9.762828071,-72.99264791499999,-7.965834961,-4.658207325499999,3.187377696,9.762828071,-55.61812738,-68.19211613499999,632.8333333333334,277.5,794.1666666666666,279.3333333333333,0.0,6.0,0.0,0.0,-0.0015701098305,0.0009001995705,-0.00021965441225,0.0034685223925,0.051227731495,0.03775794507,0.03925544566,0.07480517856,0.0,0.0,0.0,0.0,0.0,0.0,70.944673995,-120.3179566,-149.6820434,158.19211615,145.6181274,-120.3179566,0
83.0,-7.958720344,-4.652469258,3.202891024,9.75936548,-72.30920787,-7.958720344,-4.652469258,3.202891024,9.75936548,-55.455382185000005,-68.0782741,631.8,278.6,794.4,280.4,0.0,5.0,0.0,0.0,0.0007498262142999,3.727938200000008e-05,-0.0007354464256,0.0023012709145,0.05334338597,0.040653747095,0.03784429755,0.077013550425,0.0,0.0,0.0,0.0,0.0,0.0,70.841265075,-120.3094909,-149.6905091,158.0782741,145.4553822,-120.3094909,0
84.0,-7.9658232205,-4.6617484915,3.181881772,9.7627232415,-75.23473799,-7.9658232205,-4.6617484915,3.181881772,9.7627232415,-55.68454852,-68.226170085,636.1428571428571,277.42857142857144,798.2857142857143,279.85714285714283,0.0,7.0,0.0,0.0,-0.0022077992304,0.00307328927385,-0.00031760331775,0.003945168251,0.05081735441,0.03830841456,0.03881408693,0.074550651685,0.0,0.0,25.0,0.0,736.0859375,270.640625,70.978557865,-120.33696905,-149.6630309,158.2261701,145.6845485,-120.33696905,0
85.0,-7.966674392,-4.6583790275000005,3.1829325285,9.762144051,-74.101637675,-7.966674392,-4.6583790275000005,3.1829325285,9.762144051,-55.656360175,-68.22176492,630.0,277.7142857142857,792.0,279.0,0.0,7.0,0.0,0.0,0.0016057072134999,-0.00110603731755,-0.0003156389735,0.00246813248,0.051023921635,0.038923868405,0.0384225556549999,0.07479972038,0.0,0.0,6.0,0.0,736.0859375,270.640625,70.970889295,-120.3162442,-149.68375575,158.22176489999998,145.65636015,-120.3162442,0
86.0,-7.9588362795,-4.655686098,3.2004901345,9.760206235,-72.12193651499999,-7.9588362795,-4.655686098,3.2004901345,9.760206235,-55.49393447,-68.093440775,624.4285714285714,278.57142857142856,787.1428571428571,279.14285714285717,0.0,7.0,0.0,0.0,-0.0006686242514,0.0013349168026,0.0002977373261,0.0026644796565,0.053121466935,0.040128859165,0.039170930465,0.07730544977,0.0,0.0,45.0,0.0,736.0859375,270.640625,70.85790035,-120.3263833,-149.6736167,158.09344075,145.49393444999998,-120.3263833,0
87.0,-7.9708920915,-4.658317390500001,3.1732497225,9.7624066005,-73.66664588500001,-7.9708920915,-4.658317390500001,3.1732497225,9.7624066005,-55.73728863,-68.29226321,625.3333333333334,282.1666666666667,787.6666666666666,282.6666666666667,6.0,0.0,0.0,0.0,-0.0007585118725,0.0019460144774999,0.0004873149743,0.004023051388,0.05029651654,0.04012547122,0.03937235558,0.075448661645,0.0,0.0,50.0,0.0,736.0859375,270.640625,71.031517125,-120.3027015,-149.6972985,158.29226319999998,145.7372886,-120.3027015,0
88.0,-7.9658364285,-4.653427559500001,3.190208574,9.7614774095,-71.632374555,-7.9658364285,-4.653427559500001,3.190208574,9.7614774095,-55.567037725,-68.17457437499999,622.2857142857143,279.7142857142857,784.8571428571429,279.57142857142856,2.0,5.0,0.0,0.0,0.001104641263,-0.001233172149,-0.0005734255298,0.0017697272164999,0.0521214956,0.040032698265,0.04063909466,0.077271527705,0.0,0.0,38.0,0.0,736.0859375,270.640625,70.92435084,-120.2923273,-149.7076727,158.17457435,145.5670377,-120.2923273,0
89.0,-7.964279372,-4.653740145,3.1936763625,9.7614872025,-69.74565988500001,-7.964279372,-4.653740145,3.1936763625,9.7614872025,-55.539754245,-68.14921201,622.6,280.8,785.2,280.8,2.0,3.0,0.0,0.0,-0.001006788507955,0.0020274375727,-0.000152529434155,0.0023118982142,0.050734954525,0.041463279765,0.03920838704,0.076368728765,0.0,0.0,8.0,0.0,736.0859375,270.640625,70.902834745,-120.29887955,-149.70112045000002,158.14921199999998,145.53975425,-120.29887955,0
90.0,-7.97011283,-4.652915389,3.1805771325,9.7615782755,-65.886775335,-7.97011283,-4.652915389,3.1805771325,9.7615782755,-55.644779835,-68.244887505,628.0,282.75,790.5,283.75,3.0,1.0,0.0,0.0,-1.933955240000001e-05,0.000928694455365,0.0003199462314,0.0011595658039,0.0512063089,0.0420070450249999,0.0417524073849999,0.0783139618,0.0,0.0,20.0,0.0,736.0859375,270.640625,70.984364285,-120.2761818,-149.72381819999998,158.2448875,145.64477985,-120.2761818,0
91.0,-7.9680113175,-4.651927737,3.1873013845,9.7615845135,-67.62856473,-7.9680113175,-4.651927737,3.1873013845,9.7615845135,-55.582732795,-68.19798797000001,625.0,284.2,787.6,284.6,4.0,1.0,0.0,0.0,0.000223607260875,-6.26072445e-05,-0.0004910297547,0.001397079139,0.051126173385,0.04167660282,0.040937703935,0.0776349615099999,0.0,0.0,32.0,0.0,736.0859375,270.640625,70.94262702500001,-120.2774712,-149.72252880000002,158.19798795,145.5827328,-120.2774712,0
92.0,-7.965532648,-4.6525998685,3.1898050015,9.760701028,-66.390178675,-7.965532648,-4.6525998685,3.1898050015,9.760701028,-55.5656146,-68.17631542000001,627.2857142857143,284.2857142857143,790.8571428571429,284.57142857142856,5.0,2.0,0.0,0.0,-0.00019674192145,0.002389366193,-0.000277749018495,0.0025848345044999,0.052575440175,0.0403718826349999,0.03987838337,0.077489608685,0.0,0.0,27.0,0.0,736.0859375,270.640625,70.925287075,-120.28883995,-149.71116005,158.17631545,145.5656146,-120.28883995,0
93.0,-7.971640535500001,-4.6557345265,3.1740069715,9.7620317165,-69.62153919,-7.971640535500001,-4.6557345265,3.1740069715,9.7620317165,-55.716113825,-68.28941799,630.3333333333334,284.3333333333333,794.1666666666666,285.0,4.0,2.0,0.0,0.0,-0.00020444413475,5.552518024999999e-05,0.0001103379135499,0.00089533123915,0.05076208676,0.040055195715,0.03925301792,0.07565773495,0.0,0.0,22.0,0.0,736.0859375,270.640625,71.02606274499999,-120.286512,-149.71348795,158.28941795,145.71611385,-120.286512,0
94.0,-7.963808293,-4.6559575925,3.1867554609999997,9.7598972595,-70.10411716,-7.963808293,-4.6559575925,3.1867554609999997,9.7598972595,-55.61043304499999,-68.190948495,622.8,283.2,787.8,284.0,3.0,2.0,0.0,0.0,-9.94457366e-05,0.0002577385007099,-0.0002615178927499,0.00087056797455,0.055264362555,0.038339573915,0.041259578825,0.078915732145,0.0,0.0,59.0,0.0,736.0859375,270.640625,70.942597135,-120.3122464,-149.68775355,158.1909485,145.61043304999998,-120.3122464,0
95.0,-7.9692469835,-4.657532259,3.175922107,9.7615634355,-69.12386903,-7.9692469835,-4.657532259,3.175922107,9.7615634355,-55.71041831,-68.271622365,629.0,287.57142857142856,793.8571428571429,288.57142857142856,7.0,0.0,0.0,0.0,-0.0034217066225,0.00459130446,0.00044559071685,0.0057765553825,0.053089295785,0.0392780033,0.042563132435,0.07859467707,0.0,0.0,25.0,0.0,736.0859375,270.640625,71.013217295,-120.30364725,-149.69635275,158.27162235,145.7104183,-120.30364725,0
96.0,-7.979154322,-4.6643313555,3.1452740749999997,9.762973381,-72.512633025,-7.979154322,-4.6643313555,3.1452740749999997,9.762973381,-56.007230545,-68.48631420999999,629.5,286.3333333333333,794.3333333333334,287.3333333333333,5.0,1.0,0.0,0.0,0.0011561469553,-0.0002397540545,-4.4692775499999976e-05,0.002202397387,0.0521522852099999,0.035805502435,0.03997430923,0.074906428705,0.0,0.0,28.0,0.0,736.0859375,270.640625,71.20617867499999,-120.3090428,-149.6909572,158.48631419999998,146.00723055,-120.3090428,0
97.0,-7.9704679735,-4.660383682,3.1672724465,9.761105271,-69.38956334,-7.9704679735,-4.660383682,3.1672724465,9.761105271,-55.79935232,-68.32831747,626.6,284.8,792.0,285.6,2.0,3.0,0.0,0.0,-0.0002971195625,0.000577683825,-0.00039609591415,0.0029701605675,0.0542642823049999,0.036043799405,0.0394452566,0.076159147335,0.0,0.0,0.0,0.0,0.0,0.0,71.06599154,-120.3151,-149.6849,158.32831750000005,145.79935235,-120.3151,0
98.0,-7.979604856,-4.6661892565,3.1419251565,9.7631515535,-72.38109424999999,-7.979604856,-4.6661892565,3.1419251565,9.7631515535,-56.00422537,-68.48130105,629.8,283.8,795.2,285.2,3.0,2.0,0.0,0.0,-0.00091715249925,0.0026039198432,0.00052849963415,0.0029766466865,0.055142683145,0.032557184965,0.043430698725,0.0773816220699999,1.0,0.0,15.0,0.0,736.0859375,270.41015625,71.20233599,-120.3126183,-149.6873817,158.481301,146.0042254,-120.3126183,0
99.0,-7.978762489499999,-4.6595750695,3.1482737195,9.7613547355,-71.383126585,-7.978762489499999,-4.6595750695,3.1482737195,9.7613547355,-55.95489341,-68.4667048,626.8333333333334,283.8333333333333,793.0,284.6666666666667,2.0,4.0,0.0,0.0,0.0011441406325,-0.0013555872905,-0.0005229323864,0.0020798184855,0.0561759262749999,0.03397639306,0.0424110217049999,0.078304755445,0.0,0.0,0.0,0.0,0.0,0.0,71.18434269,-120.28481915,-149.71518085,158.4667048,145.9548934,-120.28481915,0
100.0,-7.9751185965,-4.660546579,3.154589996,9.760877957,-74.901278385,-7.9751185965,-4.660546579,3.154589996,9.760877957,-55.90712821,-68.418527765,624.2857142857143,284.42857142857144,789.8571428571429,284.85714285714283,2.0,5.0,0.0,0.0,-0.00182895668475,0.003164451987,0.00037303018353,0.0037523898795,0.058775776065,0.0332455197699999,0.046390891775,0.081978857325,0.0,0.0,0.0,0.0,0.0,0.0,71.14421655999999,-120.3014159,-149.6985841,158.41852775,145.9071282,-120.3014159,0
101.0,-7.9825619415,-4.664347498,3.133998992,9.762141981,-72.28668902,-7.9825619415,-4.664347498,3.133998992,9.762141981,-56.10261912,-68.56474809,621.2857142857143,279.2857142857143,785.2857142857143,279.57142857142856,3.0,4.0,0.0,0.0,0.0005235260614999,0.0008957346935,0.00085464383165,0.0028284935089999,0.0602327130299999,0.03020208415,0.05005346728,0.08396038028,0.0,0.0,0.0,0.0,0.0,0.0,71.27441052,-120.2984727,-149.70152725,158.56474805,146.1026191,-120.2984727,0
102.0,-7.9799922855,-4.6569701925,3.1513261955000003,9.762095874500002,-72.90591456499999,-7.9799922855,-4.6569701925,3.1513261955000003,9.762095874500002,-55.914176405,-68.45076513000001,620.3333333333334,278.8333333333333,783.8333333333334,279.0,5.0,1.0,0.0,0.0,0.0002528928864,-2.2208767799999972e-05,-0.000211171973055,0.0007575932843499,0.060510616285,0.030612229065,0.050845157345,0.08477417417,0.0,0.0,0.0,0.0,0.0,0.0,71.166903025,-120.267016,-149.732984,158.45076515,145.9141764,-120.267016,0
103.0,-7.978658295,-4.657752389,3.156010572,9.762891387,-73.9093071,-7.978658295,-4.657752389,3.156010572,9.762891387,-55.87912818,-68.41840103,623.25,276.5,785.625,275.25,7.0,1.0,0.0,0.0,-0.0002285159449,0.0006436998271,0.0006908119186,0.0009714886059,0.06150024607,0.02870680206,0.05293902807,0.08607497572,0.0,0.0,0.0,0.0,0.0,0.0,71.13944753,-120.2753741,-149.7246259,158.418401,145.8791282,-120.2753741,0
104.0,-7.9761576125,-4.660430643,3.1509490385000003,9.7604920195,-73.35967452,-7.9761576125,-4.660430643,3.1509490385000003,9.7604920195,-55.937115135,-68.443695865,611.7142857142857,276.42857142857144,771.1428571428571,274.85714285714283,5.0,2.0,0.0,0.0,-9.020147449999988e-05,0.000376223534,-0.0006111645883,0.0051138860719999,0.06482441683,0.030281101815,0.056466830985,0.0911676271849999,0.0,0.0,0.0,0.0,0.0,0.0,71.16602893,-120.2975426,-149.7024574,158.44369585,145.93711515,-120.2975426,0
105.0,-7.975988846,-4.663436158,3.146744546,9.760447329,-75.94556244500001,-7.975988846,-4.663436158,3.146744546,9.760447329,-55.989919645,-68.46944434,620.75,287.125,764.0,285.25,5.0,3.0,0.0,0.0,-0.00293104414,0.0038983829675,8.5433864585e-05,0.004882153392,0.067874771655,0.028176218835,0.06117410615,0.095621759245,0.0,0.0,0.0,0.0,0.0,0.0,71.19199428,-120.3141599,-149.6858401,158.46944435,145.9899196,-120.3141599,0
106.0,-7.9770983035,-4.669397291,3.142118871,9.762705236,-73.758911635,-7.9770983035,-4.669397291,3.142118871,9.762705236,-56.062793175,-68.500899785,626.4285714285714,274.85714285714283,767.2857142857143,272.85714285714283,5.0,2.0,0.0,0.0,-0.0056619816365,-0.006972098895,0.003895037804,0.010598930675,0.06624823104,0.0285316206249999,0.06480086459,0.09766401312,0.0,0.0,0.0,0.0,0.0,0.0,71.22521834,-120.3425846,-149.65741535,158.50089975,146.0627932,-120.3425846,0
107.0,-7.9146150025,-4.616037665,3.3644711935,9.7612056305,-71.12431867000001,-7.9146150025,-4.616037665,3.3644711935,9.7612056305,-53.921706740000005,-66.97021545000001,629.375,268.5,773.5,267.875,5.0,3.0,0.0,0.0,0.0213151882349999,-0.031800561515,-0.005095581257,0.038929608495,0.06298964655,0.03620959663,0.05758929002,0.09280061052,0.0,0.0,1.0,0.0,736.0859375,270.41015625,69.83655725,-120.2523756,-149.74762435,156.97021545,143.92170675,-120.2523756,0
108.0,-7.8584127585,-4.6565299315,3.4287536935,9.756932576,-74.47463759,-7.8584127585,-4.6565299315,3.4287536935,9.756932576,-53.63564203,-66.42806998500001,630.8571428571429,273.7142857142857,776.1428571428571,273.57142857142856,4.0,3.0,0.0,0.0,-0.0148066854035,0.01546349649,-0.0014413002268,0.02201772997,0.07810867741,0.030222709915,0.07058073121,0.10977574495,0.0,0.0,25.0,0.0,736.0859375,270.41015625,69.42558288000001,-120.6487692,-149.3512308,156.42806995,143.63564205,-120.6487692,0
109.0,-7.859780502,-4.7024095245,3.3836064015,9.7641000695,-72.937735775,-7.859780502,-4.7024095245,3.3836064015,9.7641000695,-54.26317577,-66.70830425,632.5,275.625,778.625,275.875,4.0,4.0,0.0,0.0,0.0009982104179999,2.2993014499999957e-05,-0.00407825395845,0.007916386415,0.06853630958,0.030632313105,0.07059948816,0.10307094298,0.0,0.0,0.0,0.0,0.0,0.0,69.724452285,-120.89157125,-149.1084287,156.70830425,144.26317575000002,-120.89157125,0
110.0,-7.861510728000001,-4.701619989499999,3.3726747225,9.7613280175,-71.88299537,-7.861510728000001,-4.701619989499999,3.3726747225,9.7613280175,-54.34649117,-66.78013329000001,630.5714285714286,276.85714285714283,777.7142857142857,276.57142857142856,4.0,3.0,0.0,0.0,0.0014572977272,0.0013861395190499,-0.0002731600548,0.0025527287935,0.06852789991,0.0323904648,0.06514945323,0.0999629768099999,0.0,0.0,0.0,0.0,0.0,0.0,69.786829305,-120.88176825,-149.11823175,156.7801333,144.34649115,-120.88176825,0
111.0,-7.856491753,-4.705388623499999,3.377136033,9.760645552,-77.38336587,-7.856491753,-4.705388623499999,3.377136033,9.760645552,-54.33236474,-66.73940911,629.7142857142857,276.42857142857144,777.1428571428571,276.2857142857143,1.0,6.0,0.0,0.0,0.0009780585828,0.0007574489505,-0.0003598782308999,0.0020332993955,0.0725799745,0.032364926225,0.072653440175,0.10767653955,0.0,0.0,0.0,0.0,0.0,0.0,69.75744447,-120.9181197,-149.08188030000002,156.7394091,144.33236475,-120.9181197,0
112.0,-7.858496408000001,-4.7048603105,3.3768821495,9.76191875,-73.67352514000001,-7.858496408000001,-4.7048603105,3.3768821495,9.76191875,-54.331344125,-66.74627658,631.375,279.0,779.75,279.0,0.0,8.0,0.0,0.0,-0.0009765193464799,0.0025516963865,-9.739847155e-05,0.002922503184,0.07204800972,0.03174012544,0.07428692006,0.10828375185,0.0,0.0,0.0,0.0,0.0,0.0,69.761779635,-120.90883305,-149.09116695,156.74627655,144.33134415,-120.90883305,0
113.0,-7.8640671765,-4.7041382825,3.3637697104999997,9.7615291665,-72.61945764,-7.8640671765,-4.7041382825,3.3637697104999997,9.7615291665,-54.43274257,-66.84171155,630.8571428571429,280.2857142857143,779.5714285714286,280.42857142857144,0.0,7.0,0.0,0.0,-0.0022213800453,0.00284219784075,-0.00045506908225,0.003663331216,0.071050405945,0.03350212941,0.073676333165,0.10769858655,0.0,0.0,0.0,0.0,0.0,0.0,69.842949395,-120.88707505,-149.11292494999998,156.84171155,144.43274259999998,-120.88707505,0
114.0,-7.8665399755,-4.711132560999999,3.3465026765,9.760961314,-69.99445518499999,-7.8665399755,-4.711132560999999,3.3465026765,9.760961314,-54.612334105,-66.95463473999999,632.375,281.625,781.375,281.5,0.0,8.0,0.0,0.0,-0.0003018753566499,0.0002698937942499,0.0004343915387499,0.00153262882465,0.07279045706,0.03084747344,0.07286403166,0.10753205945,0.0,0.0,0.0,0.0,0.0,0.0,69.949652345,-120.91664485,-149.08335515,156.9546347,144.6123341,-120.91664485,0
115.0,-7.8642051245,-4.7068121335,3.356195755,9.7603208175,-71.18456216,-7.8642051245,-4.7068121335,3.356195755,9.7603208175,-54.509211565,-66.888732885,630.7142857142857,282.14285714285717,780.0,282.0,0.0,7.0,0.0,0.0,-0.0002009276592999,0.000531717087,0.0005285291751,0.0014499778164,0.074130982845,0.03131285735,0.07456707335,0.1097237668999999,0.0,0.0,0.0,0.0,0.0,0.0,69.887703905,-120.90097925,-149.09902075000002,156.88873289999998,144.50921155,-120.90097925,0
116.0,-7.867753628,-4.707952410000001,3.349879478,9.7615621365,-70.94039775499999,-7.867753628,-4.707952410000001,3.349879478,9.7615621365,-54.56676113,-66.93700035,630.25,283.625,780.375,284.0,5.0,3.0,0.0,0.0,-0.0015199883575,0.0032687423974999,-0.0007099246458,0.0036958797975,0.071371698975,0.03249232387,0.073523832625,0.1075143585,0.0,0.0,0.0,0.0,0.0,0.0,69.9298494,-120.895704,-149.104296,156.93700035,144.56676115,-120.895704,0
117.0,-7.868979021,-4.7063073015,3.349528737,9.761639501,-69.83646866500001,-7.868979021,-4.7063073015,3.349528737,9.761639501,-54.560175075,-66.9423668,632.1428571428571,285.2857142857143,782.1428571428571,285.85714285714283,3.0,4.0,0.0,0.0,0.0011833656017,-0.0008356412212,0.0009806723898,0.0017603627510499,0.071275563875,0.03142810482,0.071992994305,0.10608544,0.0,0.0,0.0,0.0,0.0,0.0,69.932183175,-120.8829481,-149.1170519,156.9423668,144.56017505,-120.8829481,0
118.0,-7.8679576155,-4.7031697085,3.356737276,9.7617748335,-73.485016595,-7.8679576155,-4.7031697085,3.356737276,9.7617748335,-54.483863255,-66.89526236,630.875,285.875,781.0,286.5,2.0,6.0,0.0,0.0,-0.00065270587141,0.0011405826059,0.000241626544795,0.00137913661635,0.0720510823749999,0.0303918091,0.072569372115,0.10668456225,0.0,0.0,0.0,0.0,0.0,0.0,69.88744485999999,-120.8693977,-149.1306023,156.89526235,144.48386325,-120.8693977,0
119.0,-7.869086150999999,-4.708220969,3.348268123,9.762214872,-71.660990965,-7.869086150999999,-4.708220969,3.348268123,9.762214872,-54.58133471,-66.95042887,627.5714285714286,285.42857142857144,778.7142857142857,286.57142857142856,0.0,7.0,0.0,0.0,-0.001668394009,0.0030503538895,-0.00072049105645,0.003559071365,0.0728312614549999,0.029399017805,0.074598258495,0.10833844,0.0,0.0,0.0,0.0,0.0,0.0,69.94130379500001,-120.8928613,-149.1071387,156.9504289,144.5813347,-120.8928613,0
120.0,-7.868845475,-4.707048407,3.348557228,9.7615518105,-69.467098905,-7.868845475,-4.707048407,3.348557228,9.7615518105,-54.62125341,-66.9722878,628.75,285.875,779.0,286.875,1.0,7.0,0.0,0.0,0.0009406277129499,-0.0006916657793,0.00096338843755,0.0016021757024,0.07407579545,0.02734176097,0.072642634295,0.1072977205,0.0,0.0,0.0,0.0,0.0,0.0,69.96288517,-120.9033713,-149.0966287,156.9722878,144.6212534,-120.9033713,0
121.0,-7.8677272125,-4.7012149495,3.35799202,9.7610791455,-70.20610828,-7.8677272125,-4.7012149495,3.35799202,9.7610791455,-54.462471785000005,-66.88692691,632.6666666666666,287.3333333333333,783.5,287.3333333333333,1.0,5.0,0.0,0.0,0.0003066502315,0.000445275101825,-4.3013262105000006e-05,0.00063539744135,0.073500498215,0.029096292545,0.07208965967,0.10699300145,0.0,0.0,0.0,0.0,0.0,0.0,69.87810587,-120.85964815,-149.14035185,156.8869269,144.4624718,-120.85964815,0
122.0,-7.8696012565,-4.7081373195000005,3.3481624605,9.762555093,-71.16621804,-7.8696012565,-4.7081373195000005,3.3481624605,9.762555093,-54.58172204,-66.95244276,635.625,287.25,786.875,287.875,7.0,1.0,0.0,0.0,-0.00154883030569,0.0024618483605,-0.00038435649955,0.003086041558,0.07225460561,0.02727288994,0.071145638165,0.1050281274,0.0,0.0,0.0,0.0,0.0,0.0,69.942695875,-120.89076015,-149.10923985,156.9524428,144.581722,-120.89076015,0
123.0,-7.866601612,-4.7044728805,3.3522744975,9.7597766515,-74.47144713,-7.866601612,-4.7044728805,3.3522744975,9.7597766515,-54.527407069999995,-66.91920191,643.0,285.8,795.8,287.2,3.0,2.0,0.0,0.0,0.0005259478563,9.7431851925e-05,-0.0001063980082,0.00097011371135,0.0744488822,0.027404386365,0.0681994211049999,0.10462033525,0.0,0.0,7.0,0.0,736.0859375,270.41015625,69.91104705000001,-120.88073865,-149.11926135,156.91920195,144.52740705000002,-120.88073865,0
124.0,-7.8666427025,-4.703692151,3.3559066504999997,9.7606820425,-73.2832147,-7.8666427025,-4.703692151,3.3559066504999997,9.7606820425,-54.493590845,-66.89692805,643.375,284.375,795.875,286.375,7.0,1.0,0.0,0.0,-0.0030201448165,0.001409884122,0.0001417849269999,0.003727752269,0.07347307363,0.02758438029,0.0687175560699999,0.1043205003999999,0.0,0.0,7.0,0.0,736.0859375,270.41015625,69.89028886,-120.87641825,-149.12358175,156.89692805,144.49359085,-120.87641825,0
125.0,-7.875707676,-4.732356074,3.301104436,9.763177660499998,-73.86376939499999,-7.875707676,-4.732356074,3.301104436,9.763177660499998,-55.10209737,-67.25899691000001,643.5714285714286,285.14285714285717,796.8571428571429,287.42857142857144,5.0,2.0,0.0,0.0,-0.003443086632,0.0049921743,-7.091544217e-05,0.007972440895,0.0745156493799999,0.02002303617,0.069315161575,0.1037226017,0.0,0.0,12.0,0.0,736.0859375,270.41015625,70.23769355,-121.00082275,-148.99917725,157.2589969,145.10209735,-121.00082275,0
126.0,-7.881146365999999,-4.725132859,3.290227055,9.7603813105,-73.82647126500001,-7.881146365999999,-4.725132859,3.290227055,9.7603813105,-55.14960824,-67.340391385,638.5,284.25,791.0,286.25,5.0,3.0,0.0,0.0,-0.0037031623729,0.0031579869328499,0.000569106745165,0.005188533408,0.072331857645,0.02627637821,0.06496948797,0.10072611475,0.0,0.0,0.0,0.0,0.0,0.0,70.29967687,-120.9447562,-149.05524375,157.3403914,145.1496082,-120.9447562,0
127.0,-7.887550695,-4.7375584905,3.2631539425,9.7624864795,-73.66396639499999,-7.887550695,-4.7375584905,3.2631539425,9.7624864795,-55.44157412,-67.524651445,640.0,285.14285714285717,792.7142857142857,286.14285714285717,3.0,4.0,0.0,0.0,0.00083873056645,0.0012984447062,-6.275269539999999e-05,0.00200294155,0.0731285178499999,0.02253072639,0.068597605025,0.10278089005,0.0,0.0,0.0,0.0,0.0,0.0,70.472780395,-120.9906063,-149.00939365,157.5246514,145.4415741,-120.9906063,0
128.0,-7.8921837075,-4.7262173685,3.2647946484999997,9.761281573000002,-72.424727975,-7.8921837075,-4.7262173685,3.2647946484999997,9.761281573000002,-55.363890065,-67.526375965,637.7142857142857,286.0,790.2857142857143,287.0,6.0,1.0,0.0,0.0,-0.0001255213874999,7.354140100000002e-05,-7.305617494999999e-05,0.0028843636734999,0.069007835935,0.028033242945,0.062832666,0.09748573343,0.0,0.0,0.0,0.0,0.0,0.0,70.460064775,-120.9151865,-149.0848135,157.52637595,145.36389005,-120.9151865,0
129.0,-7.8832713585,-4.7272020855,3.2823918780000003,9.760457182,-69.78624092000001,-7.8832713585,-4.7272020855,3.2823918780000003,9.760457182,-55.225332455,-67.3944043,638.5,287.0,791.6666666666666,287.6666666666667,2.0,4.0,0.0,0.0,0.00048943207025,0.0013853069714,0.000646533818925,0.0019933110895,0.0747168451899999,0.02459763973,0.068842024375,0.10454963765,14.0,0.0,0.0,0.0,745.9656808035714,215.072265625,70.34870079,-120.94900245,-149.05099754999998,157.39440430000002,145.22533245,-120.94900245,0
130.0,-7.888167060000001,-4.723939752,3.275858406,9.7606388645,-70.032145095,-7.888167060000001,-4.723939752,3.275858406,9.7606388645,-55.260297345,-67.44749513,634.375,287.375,788.125,288.375,8.0,0.0,0.0,0.0,-0.001807577465,0.0033592598753999,-0.00052954574735,0.0062921264095,0.07079236602,0.027273294085,0.06386038581,0.09916891649,39.0,0.0,0.0,1.0,776.5908203125,221.8169921875,70.38979663,-120.91587535,-149.08412464999998,157.4474951,145.26029734999997,-120.91587535,0
131.0,-7.889865,-4.726243784499999,3.2710889125,9.76152779,-71.03915875499999,-7.889865,-4.726243784499999,3.2710889125,9.76152779,-55.312409845000005,-67.481414115,633.25,288.125,786.875,288.75,7.0,1.0,0.0,0.0,0.0015043147782,-0.0011338733281,0.00062502262362,0.0020220450756,0.0705998550449999,0.02652585081,0.0651320463,0.099761183295,0.0,0.0,0.0,0.0,0.0,0.0,70.42136839,-120.92274615,-149.07725384999998,157.4814141,145.3124098,-120.92274615,0
132.0,-7.889248635,-4.7227011515,3.2731141125,9.759991396,-71.48425258,-7.889248635,-4.7227011515,3.2731141125,9.759991396,-55.275722395,-67.467275395,618.5714285714286,287.14285714285717,774.0,286.42857142857144,6.0,1.0,0.0,0.0,-0.0013530502214,0.001125818034,0.00026618294175,0.0023529169045,0.07165196978,0.0264924070299999,0.062924662195,0.098989894245,0.0,0.0,0.0,0.0,0.0,0.0,70.405547595,-120.90579055,-149.09420945,157.4672754,145.27572235000002,-120.90579055,0
133.0,-7.895724873000001,-4.725097638499999,3.257546485,9.7611840285,-72.26124571,-7.895724873000001,-4.725097638499999,3.257546485,9.7611840285,-55.41714277,-67.58039737499999,616.2857142857143,284.7142857142857,773.0,284.0,0.0,7.0,0.0,0.0,-0.0025439044375,0.0037908476585,-0.0003942282174999,0.004773747772,0.068402253565,0.029016991115,0.06269135256,0.097238572785,0.0,0.0,0.0,0.0,0.0,0.0,70.505001985,-120.8978812,-149.10211875,157.58039735,145.41714274999998,-120.8978812,0
134.0,-7.9053240295,-4.717071681,3.252345536,9.7633427115,-73.62760884,-7.9053240295,-4.717071681,3.252345536,9.7633427115,-55.41440856,-67.637133395,618.75,291.75,771.75,291.125,6.0,2.0,0.0,0.0,0.0105821382055,0.003222536174705,-0.0007842743979999,0.0123027338635,0.069260630555,0.0247251090299999,0.065365811675,0.09846105069,0.0,0.0,0.0,0.0,0.0,0.0,70.54181288000001,-120.82433075,-149.17566925,157.63713339999998,145.41440855000002,-120.82433075,0
135.0,-7.899255766,-4.7137902700000005,3.2564634435,9.758209807,-72.73608755000001,-7.899255766,-4.7137902700000005,3.2564634435,9.758209807,-55.36178787,-67.596123695,626.7142857142857,299.85714285714283,777.1428571428571,299.0,7.0,0.0,0.0,0.0,-0.00831041973,0.003040818678,-0.0021604304920999,0.0098108469515,0.066901135725,0.03301358881,0.05586606684,0.09327448028,0.0,2.0,0.0,0.0,0.0,0.0,70.50555674,-120.82614065,-149.17385935,157.59612370000002,145.36178784999998,-120.82614065,0
136.0,-7.897626800499999,-4.7329577635,3.2400431775,9.7607085185,-72.423404645,-7.897626800499999,-4.7329577635,3.2400431775,9.7607085185,-55.605694345,-67.69383558,622.5,304.875,777.875,304.5,8.0,0.0,0.0,0.0,-0.00222761536406,-0.0018382535414999,0.0022218390002549,0.0047010003,0.06829445269,0.029157229705,0.061635067385,0.09652515193,0.0,0.0,0.0,0.0,0.0,0.0,70.612943745,-120.9337842,-149.0662158,157.6938356,145.60569429999998,-120.9337842,0
137.0,-7.901659591,-4.73400265,3.24284764,9.765401486,-75.93404201,-7.901659591,-4.73400265,3.24284764,9.765401486,-55.58839675,-67.68671282,625.1428571428571,304.85714285714283,776.8571428571429,304.0,7.0,0.0,0.0,0.0,0.004256317054,-0.001518187812,-0.000533604208,0.004550369496,0.0643823272,0.02668227816,0.06258577019,0.09366966774,38.0,0.0,0.0,0.0,869.7020970394736,165.59786184210526,70.60521989,-120.9264569,-149.0735431,157.6867128,145.5883967,-120.9264569,0
138.0,-7.8945376365,-4.7214948365,3.263187696,9.7603627255,-72.47261365,-7.8945376365,-4.7214948365,3.263187696,9.7603627255,-55.35032962,-67.54235634,626.375,300.0,777.625,300.0,8.0,0.0,0.0,0.0,0.0002366855132999,0.001785147789,-0.0003105795328,0.0018443186734999,0.066770920525,0.031419136225,0.0595296484049999,0.09482847675,26.0,0.0,0.0,1.0,933.9367766203704,124.99291087962963,70.468148435,-120.88242575,-149.11757425000002,157.54235635,145.3503296,-120.88242575,0
139.0,-7.894176622,-4.729259572,3.2502675045,9.759518956,-74.549799995,-7.894176622,-4.729259572,3.2502675045,9.759518956,-55.50049516999999,-67.62158425499999,617.6,274.0,767.4,272.0,1.0,4.0,0.0,0.0,-0.00151255505845,0.0011489851783,-6.0280635999999965e-05,0.002706643946,0.068987674505,0.0292835868899999,0.059600947175,0.095803773105,47.0,0.0,7.0,1.0,816.5267755681818,408.8463068181818,70.546865725,-120.9250613,-149.07493870000002,157.62158425,145.50049515,-120.9250613,0
140.0,-7.889191401,-4.7273576445,3.266684835,9.760047985,-71.63466525999999,-7.889191401,-4.7273576445,3.266684835,9.760047985,-55.354898905,-67.50697918,615.7142857142857,276.85714285714283,769.5714285714286,275.14285714285717,0.0,7.0,0.0,0.0,0.00091201481975,-0.00084902790805,-0.0003590747718499,0.001871091459,0.068112082625,0.029078209175,0.058311650455,0.094270211715,20.0,0.0,27.0,0.0,819.379571143617,391.4148936170213,70.44571790500001,-120.93086535,-149.06913465000002,157.5069792,145.35489890000002,-120.93086535,0
141.0,-7.8851630135,-4.722651255,3.288005205,9.761671174,-73.95347373499999,-7.8851630135,-4.722651255,3.288005205,9.761671174,-55.153578035,-67.36453184,611.8333333333334,275.6666666666667,769.8333333333334,273.6666666666667,0.0,6.0,0.0,0.0,0.0002544732404,-0.00013453148615,0.0002170311014999,0.0021421411985,0.06682861305,0.028222460565,0.05828825299,0.09311194308,80.0,0.0,0.0,1.0,932.5550733024692,126.71122685185183,70.31625461499999,-120.91860335,-149.0813966,157.36453185,145.15357799999998,-120.91860335,0
142.0,-7.890554742,-4.747732921000001,3.2332338085,9.7600172065,-71.42651875499999,-7.890554742,-4.747732921000001,3.2332338085,9.7600172065,-55.745792775,-67.71843833,619.1666666666666,285.8333333333333,777.0,284.3333333333333,6.0,0.0,0.0,0.0,-0.0083571869885,0.0121012793545,-0.0012037205169499,0.0154796011999999,0.06897217938,0.02728760543,0.058549451555,0.094568976285,19.0,0.0,19.0,1.0,720.3367387820513,466.8748998397436,70.65366254,-121.0351421,-148.9648579,157.71843835,145.7457928,-121.0351421,0
143.0,-7.914962809,-4.7638993030000005,3.159672075,9.7634494415,-74.98859771,-7.914962809,-4.7638993030000005,3.159672075,9.7634494415,-56.44552443,-68.237996025,621.2,289.4,780.6,289.0,4.0,1.0,0.0,0.0,0.00016062305875,0.00052244216205,0.0008768226757,0.00106627500235,0.065366465185,0.023206787765,0.055797124155,0.089027606565,0.0,0.0,9.0,0.0,719.25390625,471.0078125,71.11784523,-121.04310545,-148.95689455000002,158.237996,146.4455244,-121.04310545,0
144.0,-7.914082286999999,-4.759537784500001,3.1616473794999997,9.761251844499998,-73.506953235,-7.914082286999999,-4.759537784500001,3.1616473794999997,9.761251844499998,-56.404937935,-68.22347052,616.3333333333334,285.8333333333333,776.3333333333334,285.6666666666667,3.0,3.0,0.0,0.0,-0.00275991329765,0.0032923664377,5.0679077486e-05,0.0043207929441,0.06705103082,0.024299606575,0.054819627345,0.0899682025699999,0.0,0.0,21.0,0.0,719.25390625,471.0078125,71.10117607000001,-121.02275,-148.97725,158.22347055,146.4049379,-121.02275,0
145.0,-7.9177951545,-4.7631361835,3.1444449170000004,9.7604584215,-74.417210635,-7.9177951545,-4.7631361835,3.1444449170000004,9.7604584215,-56.568697365000006,-68.34017747499999,623.5,286.6666666666667,783.1666666666666,285.6666666666667,4.0,2.0,0.0,0.0,0.0011278845268499,-0.0002710505425,0.0009227776731999,0.0020461362045,0.068383525275,0.021986098375,0.052586228865,0.08902577772,0.0,0.0,30.0,0.0,719.25390625,471.0078125,71.20628973000001,-121.0299962,-148.9700038,158.34017749999998,146.56869734999998,-121.0299962,0
146.0,-7.9206098895,-4.7569593225,3.1508154925,9.761783513,-74.21388759999999,-7.9206098895,-4.7569593225,3.1508154925,9.761783513,-56.42938399,-68.25742194,619.0,282.8333333333333,778.3333333333334,281.3333333333333,4.0,2.0,0.0,0.0,-0.0001899628561999,0.0002826221433,-0.000169137328405,0.0009547377359,0.065248231045,0.02327913846,0.05057579848,0.085828166905,0.0,0.0,39.0,0.0,719.25390625,471.0078125,71.12768949,-121.0027009,-148.9972991,158.2574219,146.429384,-121.0027009,0
147.0,-7.92072876,-4.7628999105,3.1423081835,9.762035201,-74.3073263,-7.92072876,-4.7628999105,3.1423081835,9.762035201,-56.585301205,-68.36081854,620.0,280.3333333333333,778.5,278.6666666666667,5.0,1.0,0.0,0.0,-0.002259059428,0.002687077686,-0.0005792979627149,0.0036084309274999,0.06576706825,0.02306373162,0.05257701377,0.087312291095,0.0,0.0,8.0,0.0,719.25390625,471.0078125,71.222692415,-121.0193686,-148.9806314,158.36081855,146.5853012,-121.0193686,0
148.0,-7.922523557,-4.7620472715,3.141294116,9.7627468325,-74.72201796499999,-7.922523557,-4.7620472715,3.141294116,9.7627468325,-56.589077485,-68.37159501,620.6,273.8,777.8,272.0,1.0,4.0,0.0,0.0,0.0015317947175,-0.0009398956227,0.00105831811905,0.0023808456785,0.06583296981,0.02198684648,0.05337729695,0.08755965179,0.0,0.0,0.0,0.0,0.0,0.0,71.230401065,-121.0091096,-148.9908903,158.371595,146.5890775,-121.0091096,0
149.0,-7.9183264025,-4.7539772885,3.158153175,9.7608473785,-75.28625203,-7.9183264025,-4.7539772885,3.158153175,9.7608473785,-56.40320272,-68.255858155,619.2,274.2,775.6,272.4,2.0,3.0,0.0,0.0,-0.00019440633775,6.4569020956e-05,-0.00010710971845,0.00056115707135,0.066726453025,0.02258461249,0.05018240698,0.08650219273,0.0,0.0,0.0,0.0,0.0,0.0,71.12205646000001,-120.97961805,-149.02038195,158.25585815,146.4032027,-120.97961805,0
150.0,-7.9164714365,-4.749153496,3.1720668885,9.761513013,-73.58842173,-7.9164714365,-4.749153496,3.1720668885,9.761513013,-56.260144815,-68.164435405,622.0,273.6,778.4,272.2,5.0,0.0,0.0,0.0,0.0008078421208,-0.00141045634,0.0005210252079499,0.001885507704,0.065071140665,0.023910067365,0.049762384855,0.08540541448,0.0,0.0,0.0,0.0,0.0,0.0,71.03703973500001,-120.9598588,-149.0401412,158.1644354,146.26014479999998,-120.9598588,0
151.0,-7.911153084,-4.751209515,3.184824183,9.762349315,-74.09065723,-7.911153084,-4.751209515,3.184824183,9.762349315,-56.165324915,-68.07157403,619.6666666666666,268.0,771.1666666666666,266.3333333333333,0.0,6.0,0.0,0.0,0.00056768122935,-0.000521986252,-0.0006640124711,0.002993567681,0.06596873986,0.021525779195,0.0507251145849999,0.08597921603,0.0,0.0,0.0,0.0,0.0,0.0,70.95955965,-120.98780725,-149.0121927,158.071574,146.1653249,-120.98780725,0
152.0,-7.907503321,-4.748441741,3.1903068990000003,9.759841117,-74.93039427,-7.907503321,-4.748441741,3.1903068990000003,9.759841117,-56.104177125,-68.02824426000001,609.75,265.25,760.625,262.375,3.0,5.0,0.0,0.0,-0.000812931251,0.0001457439115,0.00076286204242,0.0066902422475,0.065607244355,0.0259341183249999,0.04854796976,0.085844102655,0.0,0.0,0.0,0.0,0.0,0.0,70.92042237000001,-120.9847314,-149.0152686,158.02824425,146.10417715,-120.9847314,0
153.0,-7.879385321999999,-4.7411598255000005,3.2773567605,9.762505431,-61.82997064,-7.879385321999999,-4.7411598255000005,3.2773567605,9.762505431,-55.346539635,-67.41581558,603.0,265.42857142857144,752.2857142857143,261.0,4.0,3.0,0.0,0.0,0.007073997029,-0.011982366115,-0.00049444015235,0.01393383658,0.0663521337649999,0.021065924345,0.04940206739,0.085671795005,0.0,0.0,0.0,0.0,0.0,0.0,70.38411711500001,-121.03596405,-148.96403594999998,157.41581555,145.34653965,-121.03596405,0
154.0,-7.8656902715,-4.7331368035,3.3205463589999997,9.762063479,-72.468256635,-7.8656902715,-4.7331368035,3.3205463589999997,9.762063479,-54.94832448,-67.1127117,610.625,266.875,760.875,262.75,4.0,4.0,0.0,0.0,-0.0025544339775,0.00342388061,0.0004599822126999,0.00444472966,0.06622601162,0.023680595675,0.050505110225,0.08669560792,0.0,0.0,0.0,0.0,0.0,0.0,70.114088775,-121.037182,-148.96281795,157.1127117,144.9483245,-121.037182,0
155.0,-7.890224546500001,-4.7284993879999995,3.266009768,9.761229862,-71.58147948499999,-7.890224546500001,-4.7284993879999995,3.266009768,9.761229862,-55.367111730000005,-67.51382261500001,610.5714285714286,270.0,765.5714285714286,266.42857142857144,7.0,0.0,0.0,0.0,-0.0022631538235,0.005791695191,0.000169031361,0.0082800431255,0.062258377705,0.028538035365,0.0467225722149999,0.0829664720849999,0.0,0.0,0.0,0.0,0.0,0.0,70.45232782,-120.9336588,-149.0663412,157.5138226,145.36711175,-120.9336588,0
156.0,-7.882362954,-4.730119547999999,3.2816052785,9.7608715365,-73.515594575,-7.882362954,-4.730119547999999,3.2816052785,9.7608715365,-55.248329075,-67.396938645,615.5,267.125,766.875,265.0,8.0,0.0,0.0,0.0,0.00023836703,-0.0015503077027815,-1.7407935200000006e-05,0.00237762585,0.064828876765,0.026728256195,0.0488700739499999,0.08548116059,0.0,0.0,0.0,0.0,0.0,0.0,70.354473235,-120.96750665,-149.03249335,157.39693864999998,145.24832909999998,-120.96750665,0
157.0,-7.883517905,-4.7318938,3.2774345394999997,9.7612647905,-74.80738303499999,-7.883517905,-4.7318938,3.2774345394999997,9.7612647905,-55.292529939999994,-67.42575879,615.0,268.14285714285717,766.4285714285714,265.2857142857143,6.0,1.0,0.0,0.0,-0.000842811152,0.002236270722,-0.0003479148693,0.003317934303,0.062895592365,0.027715438175,0.046849181635,0.0831872971,0.0,0.0,0.0,0.0,0.0,0.0,70.38128429,-120.97328475,-149.0267152,157.4257588,145.29252995000002,-120.97328475,0
158.0,-7.891552667,-4.7407445125,3.250629986,9.763093668,-74.41446071499999,-7.891552667,-4.7407445125,3.250629986,9.763093668,-55.56244238,-67.61261739,616.875,269.125,767.5,266.375,7.0,1.0,0.0,0.0,-0.00235607983825,0.00342794812465,0.0004135141698999,0.0050744479645,0.0612758735,0.02820759029,0.0497715025,0.083850193925,0.0,0.0,0.0,0.0,0.0,0.0,70.55199708,-120.9947785,-149.0052215,157.6126174,145.5624424,-120.9947785,0
159.0,-7.887418617,-4.732731763,3.2661227685,9.761031285,-74.36098882499999,-7.887418617,-4.732731763,3.2661227685,9.761031285,-55.389950375,-67.50591883999999,621.8571428571429,271.2857142857143,766.4285714285714,268.85714285714283,7.0,0.0,0.0,0.0,0.0013112355155,-0.0010426719672,0.0002609647419,0.002837458356,0.0644792533999999,0.0262093502,0.04807455453,0.08460728671,0.0,0.0,0.0,0.0,0.0,0.0,70.451274465,-120.9652551,-149.03474490000002,157.50591885,145.38995035,-120.9652551,0
160.0,-7.8753495965,-4.717426825,3.319728941,9.76202579,-73.97732359,-7.8753495965,-4.717426825,3.319728941,9.76202579,-54.865953545,-67.14301839000001,622.375,270.5,768.625,268.875,8.0,0.0,0.0,0.0,0.00673254656,-0.0084566058225,2.306466865e-05,0.011695774163,0.064726160675,0.02642506373,0.05084976346,0.08647549537,0.0,0.0,0.0,0.0,0.0,0.0,70.11895842,-120.9220706,-149.07792940000002,157.14301834999998,144.86595355,-120.9220706,0
161.0,-7.8525176645,-4.70938179,3.381412434,9.760868668,-73.29222211999999,-7.8525176645,-4.70938179,3.381412434,9.760868668,-54.32118732,-66.70260916000001,616.4285714285714,272.85714285714283,765.7142857142857,270.42857142857144,7.0,0.0,0.0,0.0,-0.004564331758,0.004164654973,1.51366671065e-05,0.007491395803,0.066716759255,0.028920563655,0.0542889609949999,0.09074692801,0.0,0.0,0.0,0.0,0.0,0.0,69.731148495,-120.9523239,-149.0476761,156.70260915,144.3211873,-120.9523239,0
162.0,-7.866206844500001,-4.724629494,3.3313444925,9.7620322745,-72.02864542500001,-7.866206844500001,-4.724629494,3.3313444925,9.7620322745,-54.812317715,-67.04729731500001,613.0,275.375,763.0,272.375,8.0,0.0,0.0,0.0,-0.0020361295125,0.0036805814755,0.000299510138015,0.004231453275,0.06744385479,0.0260751824,0.05659192414,0.0918332350799999,0.0,0.0,0.0,0.0,0.0,0.0,70.046616495,-120.9900267,-149.0099732,157.0472973,144.8123177,-120.9900267,0
163.0,-7.8720799255,-4.729550144,3.313447885,9.763054242,-75.52698999,-7.8720799255,-4.729550144,3.313447885,9.763054242,-54.985520715,-67.173221275,617.1428571428571,275.42857142857144,768.4285714285714,272.7142857142857,7.0,0.0,0.0,0.0,4.330142309999998e-05,0.0011392402639,0.0002744149419499,0.0016843369015,0.0669011013299999,0.02546623502,0.05791505732,0.092082209545,0.0,0.0,0.0,0.0,0.0,0.0,70.16050505,-120.99747255,-149.00252745,157.17322124999998,144.98552075,-120.99747255,0
164.0,-7.871580963,-4.7223298645,3.32149292,9.7618915425,-75.80068751499999,-7.871580963,-4.7223298645,3.32149292,9.7618915425,-54.879023,-67.12219791999999,618.75,276.125,769.0,273.625,8.0,0.0,0.0,0.0,0.0004308861999799,0.0014982513385,-0.000366602639665,0.0016809066655,0.0679240373149999,0.027657163795,0.059903176565,0.094705597115,0.0,0.0,0.0,0.0,0.0,0.0,70.10783042,-120.9604425,-149.0395575,157.1221979,144.87902300000002,-120.9604425,0
165.0,-7.8754860775,-4.7332498035,3.2991863655,9.762767809,-72.50925494500001,-7.8754860775,-4.7332498035,3.2991863655,9.762767809,-55.122618965,-67.27029382,614.7142857142857,277.2857142857143,765.4285714285714,274.7142857142857,7.0,0.0,0.0,0.0,-0.0013016958415,0.0020772993619999,-0.0007299391327999,0.0062609505615,0.067761989185,0.027336243375,0.06227712892,0.096014632765,0.0,0.0,0.0,0.0,0.0,0.0,70.248840205,-121.0063055,-148.9936945,157.2702938,145.12261895,-121.0063055,0
166.0,-7.871401923500001,-4.721185186,3.320213228,9.7607580635,-71.79002529499999,-7.871401923500001,-4.721185186,3.320213228,9.7607580635,-54.88287028,-67.129639575,613.75,277.5,764.375,274.25,8.0,0.0,0.0,0.0,0.0012225903705,-0.0003075425595,0.00113757358735,0.0022391816645,0.06969778445,0.028652715315,0.0622950603849999,0.097779316585,0.0,0.0,0.0,0.0,0.0,0.0,70.113412045,-120.954889,-149.04511100000002,157.1296396,144.88287025,-120.954889,0
167.0,-7.8695968535,-4.7159666265,3.3295951885,9.759974473,-74.132614355,-7.8695968535,-4.7159666265,3.3295951885,9.759974473,-54.776912455,-67.06697088499999,610.2857142857143,278.14285714285717,766.0,275.57142857142856,7.0,0.0,0.0,0.0,-0.000383496788945,0.00131241188785,0.000144518349165,0.001444801633,0.070022522755,0.03018506703,0.06270211258,0.098727416905,0.0,0.0,0.0,0.0,0.0,0.0,70.05317181999999,-120.93274275,-149.06725725,157.0669709,144.77691245,-120.93274275,0
168.0,-7.8725964985,-4.7222799680000005,3.318678185,9.7617344805,-71.82703652,-7.8725964985,-4.7222799680000005,3.318678185,9.7617344805,-54.901641555,-67.14225120500001,615.5,278.75,765.875,276.125,8.0,0.0,0.0,0.0,-0.0022220518575,0.0041054762039999,-0.0011198880644999,0.0048011553724999,0.069019570495,0.02959260937,0.065003805965,0.09932271961,0.0,0.0,0.0,0.0,0.0,0.0,70.12505414,-120.9569113,-149.0430887,157.1422512,144.90164155,-120.9569113,0
169.0,-7.8749577645,-4.7250242615,3.309561848,9.761868438,-71.426456675,-7.8749577645,-4.7250242615,3.309561848,9.761868438,-54.991353114999995,-67.204740585,631.6,286.6,778.4,286.0,4.0,1.0,0.0,0.0,0.00123963995565,-0.00103609686645,0.0009904603678,0.0019067266405,0.06853624079,0.027429566655,0.0613163712,0.09597131542,0.0,0.0,0.0,0.0,0.0,0.0,70.182230875,-120.9640167,-149.03598325000002,157.20474055,144.99135315,-120.9640167,0
170.0,-7.8701515825,-4.7210941984999995,3.3242049275000003,9.761065543,-74.81622149,-7.8701515825,-4.7210941984999995,3.3242049275000003,9.761065543,-54.8499669,-67.101700755,619.25,261.625,763.5,259.125,7.0,1.0,0.0,0.0,0.0013778740951,-5.6671085499999984e-05,-0.00124200343575,0.0021708208155,0.06845929831,0.027739913355,0.05876844698,0.094444441295,0.0,0.0,0.0,0.0,0.0,0.0,70.08914593,-120.95842915,-149.04157085,157.10170075,144.8499669,-120.95842915,0
171.0,-7.86522066,-4.717533955,3.336943144,9.759713735,-72.03755594,-7.86522066,-4.717533955,3.336943144,9.759713735,-54.72635753,-67.01015428,618.1666666666666,285.3333333333333,765.8333333333334,280.3333333333333,6.0,0.0,0.0,0.0,0.000405964227,-0.001274053975,0.0009931487285,0.001665642483,0.06746673346,0.03100396098,0.05670808596,0.09342811532,0.0,0.0,0.0,0.0,0.0,0.0,70.00671923,-120.9551939,-149.0448061,157.0101543,144.7263575,-120.9551939,0
172.0,-7.8738629825,-4.7279021005,3.3103939415,9.7626601015,-72.57365511500001,-7.8738629825,-4.7279021005,3.3103939415,9.7626601015,-54.9417972,-67.15123121,625.1666666666666,296.5,766.0,280.6666666666667,6.0,0.0,0.0,0.0,-0.003457160121,0.0026714987914999,-0.00142640004225,0.0086242449645,0.06487125188,0.0288141729899999,0.056795177945,0.090918765245,0.0,0.0,0.0,0.0,0.0,0.0,70.13819811,-120.9835487,-149.0164513,157.1512312,144.9417972,-120.9835487,0
173.0,-7.8685695785,-4.709638609500001,3.3480890834999997,9.762452053,-73.05908056999999,-7.8685695785,-4.709638609500001,3.3480890834999997,9.762452053,-54.591191165,-66.95022779,616.0,346.0,741.0,334.0,1.0,0.0,0.0,0.0,0.0039691600435,-0.004342065284,0.0014525202855,0.0077233766275,0.065605742425,0.02906646315,0.0573421047099999,0.09186673028,0.0,0.0,0.0,0.0,0.0,0.0,69.9428437,-120.90209725,-149.09790275,156.9502278,144.59119115,-120.90209725,0
174.0,-7.8458271655,-4.7126984225,3.3922986195,9.7608574395,-68.17986709,-7.8458271655,-4.7126984225,3.3922986195,9.7608574395,-54.252813935000006,-66.617810605,614.0,174.5,737.5,173.0,2.0,0.0,0.0,0.0,0.00083199902175,-0.00198898876245,-0.0013387192984999,0.0030540607205,0.067424662165,0.030778997965,0.058252662365,0.09441856404,0.0,1.0,0.0,0.0,0.0,0.0,69.66298895,-120.99165475,-149.00834525,156.61781059999998,144.25281395,-120.99165475,0
175.0,-7.833655417999999,-4.7237064135,3.4182505350000003,9.7654573115,-69.02153461500001,-7.833655417999999,-4.7237064135,3.4182505350000003,9.7654573115,-54.10918612,-66.425710255,-1.0,-1.0,-1.0,-1.0,0.0,0.0,0.0,0.0,-0.0005607087275,-0.000758224272,0.0008720765675,0.0059816736015,0.06435688608,0.02668578363,0.058055023615,0.09068981814,0.0,0.0,0.0,0.0,0.0,0.0,69.510530365,-121.0900622,-148.90993780000002,156.42571025,144.1091861,-121.0900622,0
176.0,-7.830375474,-4.712328603,3.4158291,9.7564762605,-69.20147989,-7.830375474,-4.712328603,3.4158291,9.7564762605,-54.06280118,-66.43179623500001,626.8,217.8,751.2,213.0,5.0,0.0,0.0,0.0,-0.001880681599,0.0047026970804999,-0.0027605086315,0.0121759653565,0.0675029174,0.0409418829749999,0.059445990225,0.098872583375,0.0,0.0,0.0,0.0,0.0,0.0,69.50600644,-121.03959425,-148.9604057,156.4317962,144.0628012,-121.03959425,0
177.0,-7.831182619,-4.7127864745,3.4236026405,9.760113574,-69.898290575,-7.831182619,-4.7127864745,3.4236026405,9.760113574,-54.00357022,-66.386214085,613.5714285714286,248.42857142857144,751.2857142857143,244.71428571428572,7.0,0.0,0.0,0.0,0.0024301010985,-0.0035847638395,0.0004261721479999,0.01608068554,0.066107897865,0.0351879246799999,0.0584956600399999,0.09607919037,0.0,0.0,0.0,0.0,0.0,0.0,69.46503047,-121.03932455,-148.9606754,156.38621410000002,144.00357025,-121.03932455,1
178.0,-7.828588014499999,-4.7187872315,3.4252330735,9.761461234,-69.353771145,-7.828588014499999,-4.7187872315,3.4252330735,9.761461234,-54.02521224,-66.36920532,606.375,251.125,746.625,249.0,6.0,2.0,0.0,0.0,-0.0011763405145,0.003225094091,0.00123778171856,0.0041166789385,0.06672716386,0.032144405935,0.05944195737,0.09499084375,0.0,0.0,0.0,0.0,0.0,0.0,69.45801800000001,-121.08005895,-148.91994105,156.3692053,144.02521224999998,-121.08005895,1
179.0,-7.8825126425,-4.751761308500001,3.2478974335000004,9.7605487815,-69.90491940999999,-7.8825126425,-4.751761308500001,3.2478974335000004,9.7605487815,-55.649485715,-67.606757335,598.7142857142857,258.7142857142857,745.1428571428571,254.0,0.0,7.0,0.0,0.0,-0.017567288466,0.023985355985,-0.000892810592165,0.029769009515,0.06368150401,0.038331720305,0.06328241434,0.09777070797,0.0,0.0,0.0,0.0,0.0,0.0,70.56277159000001,-121.08237965,-148.9176203,157.60675735,145.6494857,-121.08237965,1
180.0,-7.9202415375,-4.7674536765,3.1406337239999997,9.7633556465,-71.31378143,-7.9202415375,-4.7674536765,3.1406337239999997,9.7633556465,-56.62487537,-68.37018597,596.75,273.375,750.125,270.0,0.0,8.0,0.0,0.0,0.0085152287975,-0.003316582405,0.0017694248543,0.023011101425,0.0603204098,0.03295916958,0.0582900816799999,0.09032395552,0.0,0.0,0.0,0.0,0.0,0.0,71.235679035,-121.04510295,-148.95489700000002,158.37018595,146.62487535,-121.04510295,1
181.0,-7.9430250415,-4.7045125045,3.1840728045000004,9.7654537815,-61.266002415,-7.9430250415,-4.7045125045,3.1840728045000004,9.7654537815,-55.91003054,-68.155535595,588.4285714285714,274.7142857142857,745.2857142857143,271.57142857142856,0.0,7.0,0.0,0.0,0.016659676608,0.01376637916,0.008908830396,0.0266218918699999,0.059374525215,0.034052621835,0.063110603655,0.0934500897499999,0.0,0.0,0.0,0.0,0.0,0.0,70.97033533000001,-120.6377685,-149.3622315,158.1555356,145.91003055,-120.6377685,1
182.0,-8.0085329345,-4.559207315,3.1985529865,9.754677201,-63.72703275,-8.0085329345,-4.559207315,3.1985529865,9.754677201,-54.94810624,-68.22859041000001,593.625,277.875,745.5,274.125,3.0,5.0,0.0,0.0,0.00053375084205,0.000211363606,0.003853954314,0.009465083379,0.0655368484649999,0.042097840245,0.0563935860099999,0.096595918485,0.0,0.0,0.0,0.0,0.0,0.0,70.85868562,-119.65259085,-150.3474091,158.2285904,144.94810625000002,-119.65259085,1
183.0,-8.013331779,-4.576148556,3.1848990275,9.7620896265,-74.85141082000001,-8.013331779,-4.576148556,3.1848990275,9.7620896265,-55.163075735,-68.32466903,591.7142857142857,282.0,750.0,279.57142857142856,7.0,0.0,0.0,0.0,-0.004174599262,0.0039504337625,0.0003264656184999,0.006664184655,0.059806640185,0.0389788523,0.060664475445,0.09369022005,0.0,0.0,0.0,0.0,0.0,0.0,70.958558885,-119.7292598,-150.27074019999998,158.324669,145.16307575000002,-119.7292598,1
184.0,-8.010719564,-4.5635233395,3.207198244,9.761339638,-75.716211035,-8.010719564,-4.5635233395,3.207198244,9.761339638,-54.900999760000005,-68.180669905,591.5,281.75,750.375,279.625,8.0,0.0,0.0,0.0,0.00192660384335,-0.004486936608,-1.218691499999989e-07,0.00494124958545,0.059949094405,0.041389616315,0.061597370045,0.095402555605,0.0,0.0,0.0,0.0,0.0,0.0,70.818500505,-119.6691711,-150.3308289,158.1806699,144.90099975,-119.6691711,1
185.0,-8.003421505,-4.5586922095,3.2326482615,9.7614787685,-75.55457706,-8.003421505,-4.5586922095,3.2326482615,9.7614787685,-54.658885185,-68.005816175,595.8571428571429,281.85714285714283,752.8571428571429,279.7142857142857,5.0,2.0,0.0,0.0,0.0011154735281,0.000448354317,0.000196490736395,0.0026846849775,0.06120758146,0.040034759125,0.062552251885,0.096243643345,0.0,0.0,0.0,0.0,0.0,0.0,70.660573315,-119.66553225,-150.3344677,158.0058162,144.6588852,-119.66553225,1
186.0,-8.007175463500001,-4.554167795,3.2277011965,9.7608083415,-75.79689543,-8.007175463500001,-4.554167795,3.2277011965,9.7608083415,-54.67345896,-68.04558606500001,589.875,284.875,750.25,282.0,8.0,0.0,0.0,0.0,-0.00033415457255,0.0012797612089,-1.965839344999999e-05,0.00210374059545,0.061074333735,0.040336850935,0.06069040097,0.09510261209,0.0,0.0,0.0,0.0,0.0,0.0,70.689965165,-119.62952365,-150.37047635,158.04558605,144.67345895,-119.62952365,1
187.0,-8.004341650499999,-4.554751874,3.2325337935,9.76035474,-75.145485185,-8.004341650499999,-4.554751874,3.2325337935,9.76035474,-54.63645685,-68.008801105,588.1428571428571,284.14285714285717,748.7142857142857,281.7142857142857,7.0,0.0,0.0,0.0,-0.0006448801848499,0.001096633142,-0.00035624659742,0.0013519227974999,0.062161933045,0.04097298214,0.062843936225,0.097428604415,0.0,0.0,0.0,0.0,0.0,0.0,70.658968535,-119.6413982,-150.3586018,158.0088011,144.63645685,-119.6413982,1
188.0,-8.0042491955,-4.5562737095,3.2302958005,9.7602500705,-76.670642375,-8.0042491955,-4.5562737095,3.2302958005,9.7602500705,-54.66421102,-68.02235396,586.625,285.25,748.125,282.375,8.0,0.0,0.0,0.0,-0.0012474906057,0.0018449538301499,-0.000571676318025,0.0023294011580999,0.06177266326,0.040851744135,0.0614170035,0.09622939627,0.0,0.0,0.0,0.0,0.0,0.0,70.672675165,-119.6499085,-150.3500915,158.022354,144.66421105,-119.6499085,1
189.0,-8.004695327,-4.5604782015000005,3.2252019814999997,9.7608948445,-76.56872025999999,-8.004695327,-4.5604782015000005,3.2252019814999997,9.7608948445,-54.73177741,-68.05482022000001,598.4285714285714,285.7142857142857,754.0,283.42857142857144,7.0,0.0,0.0,0.0,0.00095008951875,-0.00062569640535,0.0003986681324,0.00132978168,0.061160213285,0.038909757695,0.0591868123949999,0.09360133082,0.0,0.0,0.0,0.0,0.0,0.0,70.705682655,-119.6712592,-150.32874075,158.0548202,144.7317774,-119.6712592,1
190.0,-8.003870571,-4.555702838,3.2359120624999997,9.761531762,-75.44658279000001,-8.003870571,-4.555702838,3.2359120624999997,9.761531762,-54.61385097,-67.98684101,598.625,288.0,754.625,286.0,8.0,0.0,0.0,0.0,-0.0003822112739,0.0009153752322,9.078639855e-05,0.00105896254805,0.060970946935,0.038421612645,0.05967938872,0.09358950036,0.0,0.0,0.0,0.0,0.0,0.0,70.6403775,-119.64799025,-150.35200975,157.986841,144.613851,-119.64799025,1
191.0,-8.0032806215,-4.555821708,3.2357902569999997,9.761063229,-74.11074821,-8.0032806215,-4.555821708,3.2357902569999997,9.761063229,-54.61558051,-67.98612484,597.8571428571429,288.57142857142856,754.2857142857143,287.0,7.0,0.0,0.0,0.0,-0.00108982899265,0.002001062839,-0.00067628632535,0.00240377192,0.061307322345,0.038265833075,0.05886251836,0.0932178305,0.0,0.0,0.0,0.0,0.0,0.0,70.64016956500001,-119.65044815,-150.34955185,157.98612485,144.61558050000002,-119.65044815,1
192.0,-8.0028946595,-4.5622451155,3.2289163160000003,9.761472419,-73.50351251500001,-8.0028946595,-4.5622451155,3.2289163160000003,9.761472419,-54.711146275,-68.02747725,590.625,289.25,750.375,286.875,8.0,0.0,0.0,0.0,0.0006972263458,-0.0002740658773,0.00023242906387,0.0013412192334,0.061922999765,0.0364662808,0.059276696135,0.09317753433,0.0,0.0,0.0,0.0,0.0,0.0,70.68376561,-119.6863499,-150.3136501,158.02747720000002,144.7111463,-119.6863499,1
193.0,-8.001625240500001,-4.5553931875,3.239387189,9.7606989935,-73.76341056,-8.001625240500001,-4.5553931875,3.239387189,9.7606989935,-54.582974140000005,-67.959872175,584.1428571428571,292.0,749.7142857142857,289.42857142857144,7.0,0.0,0.0,0.0,3.5817570000001245e-07,0.00042936201985,4.778258899999977e-06,0.00072519668405,0.061198799175,0.03720137326,0.05582856727,0.0908138933,0.0,0.0,0.0,0.0,0.0,0.0,70.61703686,-119.6532274,-150.3467726,157.95987215,144.5829741,-119.6532274,1
194.0,-7.999707170000001,-4.554910368,3.2424778205,9.7599275665,-78.209698855,-7.999707170000001,-4.554910368,3.2424778205,9.7599275665,-54.55429585,-67.93607843999999,597.625,289.875,756.0,288.0,8.0,0.0,0.0,0.0,-0.00019489201565,0.0006431385455,0.00016531834433,0.0007219334885,0.062704107515,0.035925057935,0.05533852187,0.09102351395,0.0,0.0,0.0,0.0,0.0,0.0,70.59620809,-119.65652185,-150.34347815,157.93607845,144.55429585000002,-119.65652185,1
195.0,-8.001983319499999,-4.563968002999999,3.2288928355,9.76152604,-75.87986451500001,-8.001983319499999,-4.563968002999999,3.2288928355,9.76152604,-54.72156763,-68.02536670500001,597.0,291.14285714285717,754.1428571428571,289.42857142857144,7.0,0.0,0.0,0.0,-0.00128704686077,0.0020531891761,-0.0001993270330499,0.0025252883117499,0.061805826145,0.032283334635,0.053078014095,0.087652310395,0.0,0.0,0.0,0.0,0.0,0.0,70.68401587,-119.69846355,-150.30153645,158.0253667,144.72156765,-119.69846355,1
196.0,-7.9994342085,-4.557722168,3.2379167175,9.7595033995,-77.38280161,-7.9994342085,-4.557722168,3.2379167175,9.7595033995,-54.57388263,-67.93172754,590.625,291.875,752.125,289.75,8.0,0.0,0.0,0.0,0.0009572096009,-0.0010045589651,0.0005040948773264,0.00153854318,0.06399211728,0.03209101857,0.0518763510899999,0.08843936843,0.0,0.0,0.0,0.0,0.0,0.0,70.59643462,-119.6797291,-150.3202709,157.9317275,144.5738826,-119.6797291,1
197.0,-7.998876545,-4.556915023,3.245522959,9.761194618,-74.5537346,-7.998876545,-4.556915023,3.245522959,9.761194618,-54.54079577500001,-67.915275995,588.0,292.2857142857143,751.1428571428571,290.14285714285717,7.0,0.0,0.0,0.0,-0.0001982189189999,0.00060668744735,1.6099203835000002e-05,0.00087503300475,0.062742779395,0.03048788688,0.05144617086,0.0866901107199999,0.0,0.0,0.0,0.0,0.0,0.0,70.57987646000001,-119.66992175,-150.3300782,157.915276,144.54079575,-119.66992175,1
198.0,-7.998478842000001,-4.5589959895,3.241901079,9.760637601,-75.143674515,-7.998478842000001,-4.5589959895,3.241901079,9.760637601,-54.58337061,-67.93656536,587.625,292.375,749.75,290.125,8.0,0.0,0.0,0.0,-0.001530283633,0.00211138608335,-0.0006902194976,0.0027072715644,0.06265339152,0.030481004935,0.049578019855,0.08551520984,0.0,0.0,0.0,0.0,0.0,0.0,70.601263115,-119.68239705,-150.31760294999998,157.93656535000002,144.58337060000002,-119.68239705,1
199.0,-8.0003939775,-4.5631065594999995,3.2331927175,9.7612418425,-74.34901225499999,-8.0003939775,-4.5631065594999995,3.2331927175,9.7612418425,-54.68049535,-67.99494085,594.1428571428571,292.14285714285717,757.4285714285714,290.57142857142856,7.0,0.0,0.0,0.0,0.00073071589075,-0.0006448186149,0.0004098307217149,0.00107440720945,0.06074116856,0.029908645645,0.045976464635,0.081850831985,0.0,0.0,0.0,0.0,0.0,0.0,70.65669334500001,-119.6987109,-150.30128910000002,157.99494085,144.68049535,-119.6987109,1
200.0,-7.999080532,-4.5565305285,3.2444179039999996,9.760814906,-74.102840395,-7.999080532,-4.5565305285,3.2444179039999996,9.760814906,-54.547729955,-67.922581445,593.25,293.625,757.375,292.625,8.0,0.0,0.0,0.0,2.791557470000004e-05,0.0001168468319999,4.4734715395e-05,0.001276590844,0.059784644335,0.031028814515,0.04362269377,0.08024957046,0.0,0.0,0.0,0.0,0.0,0.0,70.58596803500001,-119.66721385,-150.33278615,157.92258145,144.54772995,-119.66721385,1
201.0,-7.9994180655,-4.556198865,3.244573463,9.7609884405,-73.545671335,-7.9994180655,-4.556198865,3.244573463,9.7609884405,-54.54446262,-67.92246705,595.8571428571429,290.42857142857144,753.7142857142857,289.0,7.0,0.0,0.0,0.0,7.789140780000002e-05,-8.696030514999999e-05,-0.000161513563495,0.00054717655835,0.05752450631,0.031419537505,0.039025933845,0.07628552333,0.0,0.0,0.0,0.0,0.0,0.0,70.58535934,-119.6643807,-150.33561930000002,157.92246705000002,144.5444626,-119.6643807,1
202.0,-8.005501004500001,-4.5622803365,3.22986728,9.763944493,-73.664468545,-8.005501004500001,-4.5622803365,3.22986728,9.763944493,-54.70345105,-68.028075695,609.375,278.25,751.875,276.25,8.0,0.0,0.0,0.0,-0.0019708809295,0.003303966305,0.00016261385615,0.0039787213305,0.05260271572,0.031692252795,0.036378541035,0.071432424285,0.0,0.0,0.0,0.0,0.0,0.0,70.68290818,-119.6785199,-150.3214801,158.0280757,144.70345105,-119.6785199,1
203.0,-7.974491959,-4.536737864,3.321958129,9.757907746,-76.24513984000001,-7.974491959,-4.536737864,3.321958129,9.757907746,-53.79209219,-67.38526329999999,607.7142857142857,252.1428571428571,745.1428571428571,250.57142857142856,6.0,1.0,0.0,0.0,0.01056273156,-0.0278799476099999,-0.0033356165774999,0.031383365635,0.05976171981,0.0248979745099999,0.0253932996,0.070423859295,0.0,0.0,0.0,0.0,0.0,0.0,70.095922215,-119.6358893,-150.3641107,157.3852633,143.7920922,-119.6358893,1
204.0,-7.7879959555,-4.6123380055,3.635896467,9.754424381,-72.67756108,-7.7879959555,-4.6123380055,3.635896467,9.754424381,-51.74986979,-64.97387413,604.875,236.875,739.375,234.0,8.0,0.0,0.0,0.0,-0.004170122955,-0.0083732299749999,-0.02038774698,0.043296668675,0.056778814335,0.042562702495,0.02756467173,0.0765473628149999,0.0,0.0,0.0,0.0,0.0,0.0,68.11509681,-120.63561565,-149.36438435000002,154.9738741,141.74986975000002,-120.63561565,1
205.0,-7.784611816,-4.771953143,3.466799577,9.766801792,-68.705957375,-7.784611816,-4.771953143,3.466799577,9.766801792,-54.00178647,-65.99467409,626.8333333333334,241.83333333333337,758.6666666666666,237.83333333333337,6.0,0.0,0.0,0.0,-0.03106697769,0.02563872803,0.0001043550346,0.04028042164,0.05683745847,0.01723600956,0.03039198108,0.066717683,0.0,1.0,0.0,0.0,0.0,0.0,69.20916013,-121.5082228,-148.4917772,155.9946741,144.0017865,-121.5082228,1
206.0,-7.843568627,-4.7778394315,3.314061315,9.7638573085,-63.78218418,-7.843568627,-4.7778394315,3.314061315,9.7638573085,-55.25375528,-67.09494961499999,639.8571428571429,481.42857142857144,758.8571428571429,477.57142857142856,5.0,2.0,0.0,0.0,0.0033109350035,0.001629781324,0.0006437821305,0.008150268875,0.04532093157,0.026826684325,0.0101444290235,0.053726713205,0.0,0.0,0.0,0.0,0.0,0.0,70.15822283,-121.34728995,-148.65271005,157.0949496,145.25375524999998,-121.34728995,1
207.0,-7.8427717545,-4.7827131205,3.3017501515000003,9.7614058325,-71.855821065,-7.8427717545,-4.7827131205,3.3017501515000003,9.7614058325,-55.38065951,-67.1692554,634.4285714285714,533.1428571428571,757.4285714285714,530.7142857142857,1.0,6.0,0.0,0.0,-0.0096115149425,0.008965865462,-0.00333451978675,0.013639673889,0.0497171950499999,0.029236175715,0.017123344605,0.0603225931899999,0.0,0.0,0.0,0.0,0.0,0.0,70.22996735,-121.3758334,-148.6241666,157.1692554,145.3806595,-121.3758334,1
208.0,-7.834747265000001,-4.8182994125,3.26777815,9.7610923825,-72.742137895,-7.834747265000001,-4.8182994125,3.26777815,9.7610923825,-55.854125624999995,-67.35974609,608.125,525.25,737.125,523.75,8.0,0.0,0.0,0.0,0.004483979606,-0.0063468861125,-0.001928705582,0.0093307644135,0.0462525019399999,0.025303519043,0.0021291259985,0.05823852833,0.0,0.0,0.0,0.0,0.0,0.0,70.44098780499999,-121.5909431,-148.4090569,157.3597461,145.85412565,-121.5909431,1
209.0,-7.802418904,-4.827424554,3.3257737235,9.7592695925,-74.26532877,-7.802418904,-4.827424554,3.3257737235,9.7592695925,-55.435255385,-66.91386675499999,624.2857142857143,506.7142857142857,756.8571428571429,500.1428571428572,3.0,4.0,0.0,0.0,-0.0044127257905,0.00682627169,0.0016094081344999,0.019405699505,0.05178330297,0.0237731593945,0.0073684175329999,0.05971918864,0.0,0.0,0.0,0.0,0.0,0.0,70.07553522500001,-121.745392,-148.254608,156.91386675,145.43525535,-121.745392,0
210.0,-7.865120868,-4.835286147,3.169887597,9.761685673,-68.47797944000001,-7.865120868,-4.835286147,3.169887597,9.761685673,-56.753647545,-68.049348135,619.75,526.375,772.625,521.75,0.0,8.0,0.0,0.0,-0.0107455498544999,0.0148094678415,0.001162777448,0.01926207404,0.0489575328199999,0.020107367925,0.0037459728472,0.05330424838,0.0,0.0,0.0,0.0,0.0,0.0,71.050836895,-121.58219595,-148.41780405,158.04934815,146.75364754999998,-121.58219595,0
211.0,-7.939363538,-4.757364362500001,3.09168111,9.7593299905,-68.12593788,-7.939363538,-4.757364362500001,3.09168111,9.7593299905,-56.96758698,-68.725762765,611.7142857142857,540.2857142857143,769.0,537.5714285714286,0.0,7.0,0.0,0.0,0.06248157883,0.011590775198,0.00471495487715,0.065964762955,0.04588663248,0.0214225013129999,-0.00846783452,0.07063465479,0.0,0.0,0.0,0.0,0.0,0.0,71.52948008,-120.9273905,-149.0726095,158.72576275,146.96758699999998,-120.9273905,0
212.0,-8.0421248445,-4.5674651425,3.107540777,9.757097581,-61.49114397,-8.0421248445,-4.5674651425,3.107540777,9.757097581,-55.77485191,-68.87340689,611.25,545.25,769.5,542.25,0.0,8.0,0.0,0.0,-0.013554457265,0.015708683245,0.012909782759,0.039135817695,0.0481963056,0.02501906347,-0.0029822433609999,0.060786899995,0.0,0.0,0.0,0.0,0.0,0.0,71.42891915999999,-119.5939901,-150.40600990000002,158.87340690000002,145.7748519,-119.5939901,0
213.0,-8.077916592,-4.581226232500001,3.028082482,9.7678232435,-73.50331699,-8.077916592,-4.581226232500001,3.028082482,9.7678232435,-56.536777015,-69.45112772499999,616.5714285714286,548.1428571428571,772.4285714285714,544.5714285714286,0.0,7.0,0.0,0.0,0.0025690155625,0.0102557746035,-0.001696173259,0.01126064089,0.03838349109,0.017170583795,-0.007585569936,0.042821568975,0.0,0.0,0.0,0.0,0.0,0.0,71.94039726,-119.5588565,-150.4411435,159.4511277,146.536777,-119.5588565,0
214.0,-8.09040386,-4.5531992205,3.007987505,9.758826904,-73.754671085,-8.09040386,-4.5531992205,3.007987505,9.758826904,-56.550034405000005,-69.605080705,622.875,547.125,776.5,545.0,0.0,8.0,0.0,0.0,0.004423241163,-0.004216067847,0.0013740571197,0.0068920055935,0.043868070455,0.022598170005,-0.013802940135,0.051297963655,0.0,0.0,0.0,0.0,0.0,0.0,72.04720546,-119.3703393,-150.6296607,159.6050807,146.55003440000002,-119.3703393,0
215.0,-8.086384277,-4.539906275,3.0436706545,9.760342976,-73.924902495,-8.086384277,-4.539906275,3.0436706545,9.760342976,-56.16107809499999,-69.37393883499999,623.8571428571429,549.8571428571429,777.1428571428571,547.0,1.0,6.0,0.0,0.0,0.00123466076955,-0.0003007960678,-7.258809294999997e-05,0.0018482169489999,0.041602377575,0.023072356265,-0.014293661975,0.0496756688849999,0.0,0.0,0.0,0.0,0.0,0.0,71.82981458500001,-119.3109861,-150.6890139,159.37393885,146.1610781,-119.3109861,0
216.0,-8.0871312535,-4.5494672755,3.03001963,9.7611735185,-76.69430217499999,-8.0871312535,-4.5494672755,3.03001963,9.7611735185,-56.335814875,-69.460473495,623.875,548.125,778.375,546.25,0.0,8.0,0.0,0.0,-0.0009078263901,0.00286807493065,-0.0011225187127,0.00325767039795,0.041402861405,0.02134374734,-0.014737909915,0.048871363475,0.0,0.0,0.0,0.0,0.0,0.0,71.915723205,-119.36020325,-150.6397967,159.4604735,146.33581485000002,-119.36020325,0
217.0,-8.088146789,-4.545124835,3.0348082014999997,9.761473383,-76.225683405,-8.088146789,-4.545124835,3.0348082014999997,9.761473383,-56.2687276,-69.433067115,623.4285714285714,549.0,778.8571428571429,547.2857142857143,0.0,7.0,0.0,0.0,0.0008946358612,-0.002347351933,0.000869739105405,0.002720810006,0.04029074965,0.021452153,-0.016574930235,0.04857188656,0.0,0.0,0.0,0.0,0.0,0.0,71.88672780499999,-119.3337593,-150.6662407,159.43306710000002,146.2687276,-119.3337593,0
218.0,-8.085445054000001,-4.538664739,3.0442459285,9.7591666285,-76.29698747,-8.085445054000001,-4.538664739,3.0442459285,9.7591666285,-56.1488197,-69.3681733,626.375,547.875,780.0,547.625,3.0,5.0,0.0,0.0,-0.0001978779431,-0.000176795083775,0.00014679062105,0.000565237212,0.0413062046349999,0.02467933164,-0.016457811075,0.050860941005,0.0,0.0,0.0,0.0,0.0,0.0,71.82399340500001,-119.30713785,-150.69286215,159.36817330000002,146.14881965,-119.30713785,0
219.0,-8.08709163,-4.542932335,3.0351794885,9.7596989085,-74.080096045,-8.08709163,-4.542932335,3.0351794885,9.7596989085,-56.2527598,-69.428310005,625.2857142857143,547.0,779.8571428571429,547.1428571428571,5.0,2.0,0.0,0.0,-0.00133461579575,0.0027663277272499,-0.0009499147379,0.0033377740255,0.04080544794,0.0255007794499999,-0.014845309515,0.05036757882,0.0,0.0,0.0,0.0,0.0,0.0,71.881012935,-119.32514065,-150.67485935000002,159.42831,146.25275979999998,-119.32514065,0
220.0,-8.093271426,-4.542267540999999,3.024558927,9.761213261,-74.12307179999999,-8.093271426,-4.542267540999999,3.024558927,9.761213261,-56.34156018,-69.50866143,625.25,546.375,780.25,547.125,7.0,1.0,0.0,0.0,0.000781610754,-0.00196403012425,0.0012269127854499,0.0024885638289999,0.03827047932,0.025442963675,-0.01683295582,0.04897408514,0.0,0.0,0.0,0.0,0.0,0.0,71.94951567999999,-119.30287695,-150.69712305000002,159.5086614,146.34156015000002,-119.30287695,0
221.0,-8.091479564,-4.533670713,3.0429354185,9.7614389445,-73.44093949,-8.091479564,-4.533670713,3.0429354185,9.7614389445,-56.131069525,-69.3903972,627.5714285714286,548.5714285714286,782.1428571428571,549.0,7.0,0.0,0.0,0.0,0.0012618263991,-0.00224212226545,1.7924689100000016e-05,0.0027510658085,0.038099087105,0.02642021685,-0.01510137456,0.048777637855,0.0,0.0,0.0,0.0,0.0,0.0,71.836468025,-119.26198965,-150.73801035,159.3903972,146.1310695,-119.26198965,0
222.0,-8.088937791,-4.531374018,3.050114607,9.760510388,-77.628906765,-8.088937791,-4.531374018,3.050114607,9.760510388,-55.95583386,-69.27854021,630.375,546.5,783.125,546.875,8.0,0.0,0.0,0.0,-0.00202498842005,0.0029507011947,-0.000823484004,0.003680583872,0.037100566115,0.0307434016049999,-0.014277487545,0.050293640265,0.0,0.0,0.0,0.0,0.0,0.0,71.73308842,-119.2451743,-150.7548257,159.2785402,145.9558339,-119.2451743,0
223.0,-8.093118802,-4.5387161035000005,3.02801204,9.760503382,-77.821331195,-8.093118802,-4.5387161035000005,3.02801204,9.760503382,-56.290702874999994,-69.48684772,631.0,546.2857142857143,784.4285714285714,546.8571428571429,7.0,0.0,0.0,0.0,0.00030491849415,-0.00139735335295,0.00077699373635,0.00209659595385,0.03774080757,0.030169712355,-0.013439079945,0.050154862215,0.0,0.0,0.0,0.0,0.0,0.0,71.92683425,-119.2842157,-150.7157843,159.4868477,146.2907029,-119.2842157,0
224.0,-8.092100332000001,-4.532288293500001,3.0410041405,9.7607089425,-72.631178545,-8.092100332000001,-4.532288293500001,3.0410041405,9.7607089425,-56.139791175,-69.403825715,636.75,546.5,787.375,547.0,8.0,0.0,0.0,0.0,0.0001739599746599,-0.0004709054414999,-0.0001050108489,0.00075372420405,0.036328624735,0.0299167371549999,-0.01694004299,0.050043640695,0.0,0.0,0.0,0.0,0.0,0.0,71.84699336,-119.2526647,-150.7473353,159.4038257,146.1397912,-119.2526647,0
225.0,-8.09010595,-4.532691866,3.043513628,9.760026328,-74.973642845,-8.09010595,-4.532691866,3.043513628,9.760026328,-56.120293815,-69.383601355,627.2857142857143,542.1428571428571,781.7142857142857,540.8571428571429,3.0,4.0,0.0,0.0,-0.0007322789375,0.0011910074834999,-0.00099465931695,0.004383737824,0.03604985013,0.03138675584,-0.01766434103,0.0509921788049999,0.0,0.0,0.0,0.0,0.0,0.0,71.830168165,-119.2608599,-150.7391401,159.38360135,146.1202938,-119.2608599,0
226.0,-8.09534212,-4.5436338175,3.0221081405,9.762802956,-72.6409416,-8.09534212,-4.5436338175,3.0221081405,9.762802956,-56.37092176,-69.52867241499999,610.375,537.5,764.875,534.375,0.0,8.0,0.0,0.0,0.0004002176357,-0.0003582049849999,0.000952603903,0.002821532867,0.03482191764,0.027967401575,-0.017128953915,0.047853559315,0.0,0.0,0.0,0.0,0.0,0.0,71.96768513500001,-119.30398035,-150.69601965,159.5286724,146.3709218,-119.30398035,0
227.0,-8.0722592385,-4.5409702395,3.0732796705,9.7584416325,-74.57781990000001,-8.0722592385,-4.5409702395,3.0732796705,9.7584416325,-55.91038041,-69.157073155,609.7142857142857,536.2857142857143,762.0,533.7142857142857,0.0,7.0,0.0,0.0,7.421907250000008e-05,-0.0064670605475,-0.002386636399,0.009793110212,0.0385023443499999,0.027582849695,-0.02174641126,0.052128784055,0.0,0.0,0.0,0.0,0.0,0.0,71.64308304,-119.3595171,-150.6404829,159.15707315,145.9103804,-119.3595171,0
228.0,-8.0713523015,-4.555240564,3.057377445,9.7593382395,-70.61441383,-8.0713523015,-4.555240564,3.057377445,9.7593382395,-56.13148679,-69.25372197,617.25,539.5,768.375,537.625,0.0,8.0,0.0,0.0,-0.003459731866,0.0042953601855,-0.0029742118449999,0.009449975475,0.03737408969,0.028651067205,-0.020282053495,0.0513588398,0.0,0.0,0.0,0.0,0.0,0.0,71.74321109,-119.43915945,-150.56084055,159.25372195,146.13148675000002,-119.43915945,0
229.0,-8.082392578,-4.578388017,3.0210265659999997,9.7680170325,-73.837435805,-8.082392578,-4.578388017,3.0210265659999997,9.7680170325,-56.58173748,-69.50526516,617.7142857142857,544.1428571428571,765.2857142857143,543.0,1.0,6.0,0.0,0.0,0.00335315542115,-0.0008670625815,0.002648603599,0.00961081905,0.029228207455,0.02425145017,-0.02079171859,0.044730408425,0.0,0.0,0.0,0.0,0.0,0.0,71.984121105,-119.5300017,-150.4699983,159.50526515,146.5817375,-119.5300017,0
230.0,-8.045347555,-4.557918818,3.106413709,9.7547276915,-75.195463855,-8.045347555,-4.557918818,3.106413709,9.7547276915,-55.72620277,-68.887987075,624.0,544.625,770.75,544.5,0.0,8.0,0.0,0.0,0.006467503017,-0.0095810007795,0.0002409280894499,0.012952119735,0.04605670047,0.023332018505,-0.02009551585,0.056183547455,0.0,0.0,0.0,0.0,0.0,0.0,71.43057863,-119.5328538,-150.4671462,158.88798705,145.72620275,-119.5328538,0
231.0,-8.040588334,-4.5471368275,3.1619350165,9.763488857,-74.30978751,-8.040588334,-4.5471368275,3.1619350165,9.763488857,-55.18639256,-68.532980785,622.2857142857143,545.1428571428571,768.5714285714286,545.1428571428571,0.0,7.0,0.0,0.0,-0.0071348092065,0.0012299920999999,-0.0002015413995,0.0143467708049999,0.02821900669,0.025212855675,-0.035427210515,0.05262553305,0.0,0.0,0.0,0.0,0.0,0.0,71.1038618,-119.4891054,-150.5108946,158.53298080000002,145.1863926,-119.4891054,0
232.0,-8.058504019499999,-4.5542162235,3.105382031,9.763393492,-75.242920895,-8.058504019499999,-4.5542162235,3.105382031,9.763393492,-55.711175245,-68.925617135,616.5,546.875,766.5,546.0,1.0,7.0,0.0,0.0,0.00145117984865,-0.0004194595635,0.00132327666385,0.0029298014035,0.033289929945,0.02284754229,-0.02660596627,0.04837445674,0.0,0.0,0.0,0.0,0.0,0.0,71.45412973500001,-119.47270715,-150.5272928,158.92561715,145.71117525,-119.47270715,0
233.0,-8.0609137145,-4.5442736635,3.108597403,9.761772385,-73.53874745499999,-8.0609137145,-4.5442736635,3.108597403,9.761772385,-55.625120214999995,-68.91144259500001,615.7142857142857,544.1428571428571,768.7142857142857,544.1428571428571,0.0,7.0,0.0,0.0,-0.0044916901995,0.002909912703,-0.0003318153654999,0.007591041442,0.033143887135,0.02358012102,-0.0309403639149999,0.05132311472,0.0,0.0,0.0,0.0,0.0,0.0,71.43100497,-119.41175025,-150.58824975,158.9114426,145.6251202,-119.41175025,0
234.0,-8.0674603945,-4.564579966,3.0562239615,9.7601170275,-74.22451118000001,-8.0674603945,-4.564579966,3.0562239615,9.7601170275,-56.195625475,-69.25164964000001,609.0,545.0,759.5,544.25,3.0,5.0,0.0,0.0,-0.0008770133844999,0.0038063727915,-0.00178886944415,0.0053076234625,0.03544194607,0.022181839655,-0.032557465865,0.053361809135,0.0,0.0,0.0,0.0,0.0,0.0,71.751797505,-119.5012338,-150.4987662,159.25164965,146.19562545000002,-119.5012338,0
235.0,-8.077627487,-4.557956974,3.0455153480000003,9.762102138,-74.50968641,-8.077627487,-4.557956974,3.0455153480000003,9.762102138,-56.250069535,-69.34205366500001,615.1428571428571,544.8571428571429,763.8571428571429,543.8571428571429,0.0,7.0,0.0,0.0,0.0029640481555,-0.0043631617193,0.0007677923105,0.00838232958,0.03224269935,0.022032463355,-0.034869082315,0.053209338825,0.0,0.0,0.0,0.0,0.0,0.0,71.82174656000001,-119.43464735,-150.56535265,159.3420537,146.25006954999998,-119.43464735,0
236.0,-8.0609768185,-4.566415854,3.0781959175,9.762522512,-70.383479185,-8.0609768185,-4.566415854,3.0781959175,9.762522512,-56.01633654,-69.09997405499999,615.375,544.0,764.375,544.5,0.0,8.0,0.0,0.0,0.0006501790585,-0.00181717345715,0.00132752809705,0.0067634810855,0.03890001807,0.01823599235,-0.021622232455,0.0483412819599999,0.0,0.0,0.0,0.0,0.0,0.0,71.620636795,-119.5308715,-150.4691285,159.09997405,146.0163365,-119.5308715,0
237.0,-8.0838454395,-4.556430736,3.0268350755,9.7607152515,-63.79538112,-8.0838454395,-4.556430736,3.0268350755,9.7607152515,-56.40405151,-69.47259077,610.5714285714286,543.2857142857143,759.8571428571429,542.7142857142857,0.0,7.0,0.0,0.0,-0.0046102228169999,0.0059616650235,0.00238396464535,0.0094456048265,0.0315676612399999,0.022440048685,-0.040653156635,0.056229225745,0.0,0.0,0.0,0.0,0.0,0.0,71.934481965,-119.4076262,-150.59237380000002,159.47259075,146.40405149999998,-119.4076262,0
238.0,-8.092963243,-4.531266888,3.037197351,9.759771205,-67.392045105,-8.092963243,-4.531266888,3.037197351,9.759771205,-56.16700724,-69.429473755,619.125,542.875,768.75,543.375,1.0,7.0,0.0,0.0,0.003327502723,-0.002870747721,0.0005887009915,0.0063570542215,0.035870913865,0.02152450656,-0.033632760225,0.053835398495,0.0,0.0,0.0,0.0,0.0,0.0,71.868690095,-119.24453975,-150.75546020000002,159.42947375,146.1670072,-119.24453975,0
239.0,-8.0769171995,-4.535307016,3.071156145,9.758977944,-73.736109925,-8.0769171995,-4.535307016,3.071156145,9.758977944,-55.8955008,-69.181251615,618.4285714285714,541.7142857142857,771.2857142857143,542.0,0.0,7.0,0.0,0.0,5.028450749999997e-05,-0.00206026743075,-0.0014029141455,0.0034226905264999,0.036047069835,0.021498555245,-0.0355086301299999,0.05500195208,0.0,0.0,0.0,0.0,0.0,0.0,71.657255185,-119.3148536,-150.6851464,159.18125165,145.89550079999998,-119.3148536,0
240.0,-8.07281837,-4.556627386,3.061853431,9.762591664,-71.082157895,-8.07281837,-4.556627386,3.061853431,9.762591664,-56.10063325,-69.22929705,624.625,543.625,775.0,544.0,0.0,8.0,0.0,0.0,-0.0008088165995,0.002585976811,-0.004870900067,0.00557378936,0.03135005309,0.02285109075,-0.03441737058,0.05186090603,0.0,0.0,0.0,0.0,0.0,0.0,71.72179907,-119.442152,-150.557848,159.229297,146.1006332,-119.442152,0
241.0,-8.0696103355,-4.572040920999999,3.0500426975,9.7634494385,-75.21359325,-8.0696103355,-4.572040920999999,3.0500426975,9.7634494385,-56.292465825,-69.29509236999999,633.3333333333334,544.6666666666666,781.6666666666666,545.3333333333334,0.0,3.0,0.0,0.0,0.0002467913744999,-0.0010801066265,0.0002853724994999,0.003985511852,0.03247578542,0.0193924569549999,-0.0339433391,0.050857462205,0.0,0.0,0.0,0.0,0.0,0.0,71.79644501000001,-119.53480985,-150.46519015,159.2950924,146.29246585,-119.53480985,0
242.0,-8.038312184999999,-4.599937322000001,3.0724974730000003,9.7578426885,-72.68413573999999,-8.038312184999999,-4.599937322000001,3.0724974730000003,9.7578426885,-56.258196479999995,-69.08153086,-1.0,-1.0,-1.0,-1.0,-1.0,-1.0,-1.0,-1.0,-0.00026146582025,-0.0038478348475,-0.0150314162405,0.0161064024145,0.034289660505,0.02558071433,-0.037361174225,0.05876057193,0.0,0.0,0.0,0.0,0.0,0.0,71.64675439499999,-119.7801157,-150.2198843,159.08153085,146.25819645,-119.7801157,0
243.0,-7.973540995,-4.7057995335000005,3.0936622844999997,9.761797759,-68.823361605,-7.973540995,-4.7057995335000005,3.0936622844999997,9.761797759,-56.67845562,-68.79419567,-1.0,-1.0,-1.0,-1.0,-1.0,-1.0,-1.0,-1.0,0.0001166464609999,-0.0017738914955,-0.0018181334235,0.0040290323245,0.037765772885,0.0159015746249999,-0.03052203003,0.05125057203,0.0,0.0,0.0,0.0,0.0,0.0,71.52352692,-120.54811905,-149.45188094999995,158.79419565,146.67845565,-120.54811905,0
244.0,-7.9753445975,-4.685628245,3.1198798235,9.761915082000002,-73.58373682499999,-7.9753445975,-4.685628245,3.1198798235,9.761915082000002,-56.342704825,-68.634994155,-1.0,-1.0,-1.0,-1.0,-1.0,-1.0,-1.0,-1.0,-0.006126190911,-0.0028787761699999,0.0035755993065,0.01213947892,0.03157753271,0.02203435224,-0.036535200555,0.05534965508,0.0,0.0,0.0,0.0,0.0,0.0,71.361384955,-120.4348313,-149.56516864999998,158.63499415,146.34270479999998,-120.4348313,0
245.0,-7.98250324,-4.697038341,3.0841232975,9.761883161499998,-75.173169805,-7.98250324,-4.697038341,3.0841232975,9.761883161499998,-56.71068731,-68.875440485,625.25,546.75,772.75,546.5,1.0,3.0,0.0,0.0,0.0014159244565,0.000341483291,4.836025720000002e-05,0.0048297430525,0.032786255375,0.0195659358199999,-0.037540491705,0.05357437827,0.0,0.0,0.0,0.0,0.0,0.0,71.582716295,-120.47326465,-149.52673535,158.87544045,146.71068730000002,-120.47326465,0
246.0,-7.9830726445,-4.6924743025,3.0834482305,9.7599432955,-73.48803176999999,-7.9830726445,-4.6924743025,3.0834482305,9.7599432955,-56.6908258,-68.881035455,624.625,549.25,770.25,549.0,1.0,7.0,0.0,0.0,-0.0015211513459999,0.00074593957225,-0.0009165273205,0.0056409448295,0.036746511475,0.0188866728,-0.0344918165249999,0.0538407867,0.0,0.0,0.0,0.0,0.0,0.0,71.58308693000001,-120.4471224,-149.5528776,158.88103545,146.6908258,-120.4471224,0
247.0,-7.9853517285,-4.703351683,3.0663030019999997,9.76164529,-74.344114485,-7.9853517285,-4.703351683,3.0663030019999997,9.76164529,-56.77671131,-68.92317363,622.1428571428571,549.2857142857143,772.1428571428571,550.5714285714286,2.0,5.0,0.0,0.0,-0.0017804157255499,0.002176508301,-0.001067570581,0.0043138306405,0.03347468476,0.02058376122,-0.035103922545,0.052721341285,0.0,0.0,0.0,0.0,0.0,0.0,71.6254134,-120.4740787,-149.5259213,158.9231736,146.7767113,-120.4740787,0
248.0,-7.987049668499999,-4.6969180025,3.0689827235,9.760775869,-75.44684774,-7.987049668499999,-4.6969180025,3.0689827235,9.760775869,-56.839230015,-68.980987065,627.2857142857143,549.7142857142857,774.8571428571429,550.5714285714286,1.0,6.0,0.0,0.0,0.001653044053,-0.00263072611,0.0016352548405,0.0049266959545,0.03251119547,0.021391665845,-0.039099187425,0.055200969485,0.0,0.0,0.0,0.0,0.0,0.0,71.674177855,-120.4583523,-149.54164765000002,158.98098705,146.83923,-120.4583523,0
249.0,-7.987444436,-4.6912224935,3.0801448055,9.7618716305,-75.98567639999999,-7.987444436,-4.6912224935,3.0801448055,9.7618716305,-56.71205623,-68.912195685,631.125,552.375,777.25,553.875,4.0,4.0,0.0,0.0,0.00018057562435,0.00057587934915,0.00084012249245,0.0015588063654999,0.03300103736,0.020527461705,-0.03561462524,0.052817055685,0.0,0.0,0.0,0.0,0.0,0.0,71.60730124,-120.42676495,-149.57323505,158.91219565,146.71205625,-120.42676495,0
250.0,-7.98602386,-4.704189646,3.0613309885,9.761031286,-74.85856101499999,-7.98602386,-4.704189646,3.0613309885,9.761031286,-56.945247185,-69.02635953500001,626.8571428571429,551.4285714285714,777.5714285714286,553.4285714285714,0.0,7.0,0.0,0.0,-0.0002340073034999,0.0002648683944999,-3.075803399999995e-05,0.004780529463,0.03492481144,0.018980506285,-0.03577583355,0.053747057705,0.0,0.0,0.0,0.0,0.0,0.0,71.721994165,-120.5003336,-149.4996664,159.02635955,146.94524715,-120.5003336,0
251.0,-7.987871489,-4.6944804245,3.0717299515,9.761135444,-76.157868385,-7.987871489,-4.6944804245,3.0717299515,9.761135444,-56.80215216,-68.96578995,630.0,553.875,778.625,554.875,1.0,7.0,0.0,0.0,0.000592066771885,-0.00099367308235,-0.0001388390295,0.002895450978,0.03375766707,0.020662340345,-0.03583687963,0.053397372365,0.0,0.0,0.0,0.0,0.0,0.0,71.65790951,-120.4427978,-149.5572022,158.96578995,146.80215215,-120.4427978,0
252.0,-7.989253908,-4.6913883255,3.072923059,9.7611556525,-76.50217979,-7.989253908,-4.6913883255,3.072923059,9.7611556525,-56.774656085,-68.96165617,631.2857142857143,554.0,782.7142857142857,556.0,0.0,7.0,0.0,0.0,0.0004693932749,0.0012231494835,-0.0006233845001415,0.001703823472,0.034487250535,0.0197179748949999,-0.035313373255,0.053282765855,0.0,0.0,0.0,0.0,0.0,0.0,71.65057033,-120.42198105,-149.57801890000002,158.96165615,146.77465610000002,-120.42198105,0
253.0,-7.9868207325,-4.7118912774999995,3.055014711,9.7634221265,-75.42984538,-7.9868207325,-4.7118912774999995,3.055014711,9.7634221265,-57.042193575,-69.06781125500001,632.375,556.5,781.75,558.625,3.0,5.0,0.0,0.0,-0.00093865395285,0.0004018156896,-0.0008799598723,0.001767751261,0.033340634475,0.01639700577,-0.036309899315,0.05201663888,0.0,0.0,0.0,0.0,0.0,0.0,71.76567148000001,-120.5388336,-149.4611664,159.06781124999998,147.04219355,-120.5388336,0
254.0,-7.9893947915,-4.696081507,3.065991884,9.7613483665,-73.882402375,-7.9893947915,-4.696081507,3.065991884,9.7613483665,-56.860160255,-69.00530997999999,627.7142857142857,557.1428571428571,779.4285714285714,558.1428571428571,0.0,7.0,0.0,0.0,0.0015839587,-0.00141317368833,0.001038855023,0.003695418469,0.035502269845,0.016961124495,-0.0363156146749999,0.05355402162,0.0,0.0,0.0,0.0,0.0,0.0,71.693803465,-120.44655965,-149.55344035000002,159.00530995,146.86016024999998,-120.44655965,0
255.0,-7.987919917499999,-4.6894276965,3.0739899580000003,9.759457607,-76.13128983,-7.987919917499999,-4.6894276965,3.0739899580000003,9.759457607,-56.75455922,-68.95178598,634.25,557.875,784.25,559.875,0.0,8.0,0.0,0.0,0.00020321030355,0.0007019748719999,-0.000465754827,0.003360551436,0.036649774455,0.01935454464,-0.035626924455,0.0547458980999999,0.0,0.0,0.0,0.0,0.0,0.0,71.64066599,-120.41570165,-149.58429834999998,158.95178595,146.75455920000002,-120.41570165,0
