Time (s),Gyroscope x (rad/s),Gyroscope y (rad/s),Gyroscope z (rad/s),Absolute (rad/s)
0.0,0.01834255645,0.1052932184,0.2629466463,0.28383807
1.0,0.0724360963275,0.0868355938,-0.37092794025000003,0.44757105105
2.0,-0.0856966176645,0.102613745335,-0.3407162779,0.3741344887
3.0,0.011796437849999999,-0.0268709849515,0.116075120145,0.1278310083
4.0,-0.04912110776,0.13648999,0.08990292589,0.17215944575
5.0,0.0316542704645,0.032423631542500005,0.0244558414705,0.054152409166
6.0,-0.0022686723040000003,-0.00151992251415,0.001606143411,0.006905680441
7.0,0.001076230076,0.007283669655,0.004662028353,0.0094053396335
8.0,0.050380458315,0.02200666634,0.01278932416,0.058136755715
9.0,0.012242199924999999,0.00279292911,0.006104421947,0.020618701465
10.0,0.003321736243,0.0044246388385,1.2668104599999962e-05,0.00746460073
11.0,-0.01240921174,0.009627349692499999,0.0014797808815000001,0.016206172775
12.0,0.0039799960065,-0.00010290578450000004,-0.000327647202,0.007364010912
13.0,0.00157571295,-6.246958020000002e-05,-0.0008251385361,0.002018162075
14.0,0.000505921707,-0.0003838233885,0.00059430393655,0.002666948813
15.0,0.0020494939915,-0.0030228371630000002,-0.000401314386775,0.003704361909
16.0,-0.00254620476095,0.00324755392995,0.00023297113695,0.0041539359184
17.0,0.0019726005185,-0.0020331904345,0.000279319042905,0.0028730273824999998
18.0,0.00095136108,-0.001093544406,-0.00014228319383500002,0.001465827618
19.0,-0.0011057658214,0.0016902007788999998,-2.6043534000000097e-06,0.00295325416505
20.0,-0.002923111244,0.002193219795165,0.0021366378535,0.005670829025
21.0,0.0011343878175000006,0.0007351038035,0.0024398761554999997,0.013115827535
22.0,0.00039321990145000003,-0.0010647605717,-0.0008312049168,0.0020996443825
23.0,0.00114525931525,-0.00136739933,-7.41349564e-05,0.0018025654625
24.0,0.00025325372135,-0.00064788010275,-0.00048659629800000006,0.0008542641472499999
25.0,0.00071982768205,-0.00127808711095,-0.00145133935875,0.0029915474
26.0,-0.005651621414,-0.0031014498430000006,0.00046023088405,0.015093709609999999
27.0,-0.0040651115075,0.0057991119135000005,-0.000624409502585,0.007459348457
28.0,0.007543715120999999,-0.0011495110675000001,0.0020759815340999997,0.01169506024
29.0,0.0012154777254999999,-0.0036305493455000004,-0.0016451210177,0.0043338546385
30.0,-0.0008353777045,0.001822189293,0.000316115847794,0.00240498022865
31.0,0.00045428581435,-0.00110802332305,0.0005038918302,0.001323120907
32.0,0.00014300927905,-0.0011245366117,-0.0005232337417,0.0015417063585999998
33.0,-0.0011654104965,0.001225003264,0.00026975324782,0.0017434354119999999
34.0,0.0005047776024,-0.001226404234,0.0001305873522,0.001332636796
35.0,0.0019982668464999997,-0.00226830069525,-0.00065191357405,0.0032834354584999996
36.0,0.00035604344700000006,-0.000293260123,-0.000105747055,0.002524028672
37.0,-0.0022923068905,0.0012283303751,-0.0003700870969,0.002635024583
38.0,0.001260760128535,-0.0019663462015,0.00028513981815,0.0025525404559999998
39.0,3.549722754e-05,-0.0007522602648,0.0001779834126,0.0008687991112500001
40.0,-0.0018074378625,0.0009372172474,-0.00034806672565,0.0020777903655
41.0,-0.001544098591435,0.0007713611849999999,-0.00027057850920000003,0.002724781012
42.0,0.0011943821387,-0.0016855424285,2.9724097600000038e-05,0.002148850495
43.0,-0.00067636463575,7.087168899999998e-05,-0.00011901747362999998,0.0019078589375
44.0,-0.0010418829814999998,0.000755867042,0.00040373872569999993,0.003691974482
45.0,-3.882214499999995e-05,-0.00104108645895,-0.00064775495055,0.002521041726
46.0,-0.0011367731720999998,0.0010530201539999998,3.609343830000001e-05,0.0028164260579999997
47.0,0.0009396919595000002,-0.0016770152463,0.0002313354612,0.00235575806395
48.0,-0.00018692755265000002,-0.00019634351719999998,8.163817385e-05,0.0008778562287
49.0,-0.001023406907,0.0010437214765,-0.00022308917729999998,0.0037527375605000005
50.0,0.0005014309634,-0.0012926998907,0.00045876976204999996,0.0016697895680999999
51.0,0.000397611210845,-0.0004894960050949999,-0.0004399956864,0.00092645428345
52.0,-0.00189258940715,0.0020365641275500003,-0.0006004486669,0.003430105756
53.0,0.001043579354,-0.0015902842566499998,-5.358930700000001e-05,0.002008848846
54.0,-6.841129950000004e-05,-0.0006419079330250001,-0.00033579356214999997,0.00132615103405
55.0,-0.00138538638285,0.0018553656855,0.00014016348989999997,0.003593887814
56.0,0.0004900083282000001,-0.00144233758,-0.00063393392035,0.002060745568
57.0,-0.0011228091933499999,0.00152692472885,-0.0003549379243,0.0030653705005
58.0,0.000568436908,-0.0005021062065,0.00033650736666999997,0.003343466262
59.0,0.001225763811,-0.001493697226,-0.00076846333995,0.00212697559
60.0,-0.0024397086884999997,0.003065943969,9.715948458e-05,0.003950481217
61.0,0.002047144509,-0.002253990157,0.00064875513325,0.0032391605349999996
62.0,0.0005909327496,0.00012250091000000005,-0.00033108034005,0.0020769136395
63.0,-0.0023771985025,0.0034235882866000002,-0.0004162652476,0.005291065671
64.0,0.0022938061255,-0.001930536296,-0.0010526221486499999,0.0035949267714999998
65.0,-0.006139741117,0.004231081159499999,-0.00110449458215,0.007547631529
66.0,-0.001601316425,-0.0031283289949999996,0.00171940951,0.0057503800205
67.0,-0.0004519312275,0.0008407262925049999,-0.0011742306149,0.0030733625734999997
68.0,-0.0013264871599,0.002048927953,0.0015990608248499997,0.0054087623905
69.0,0.005615861712,-0.003187668615,-0.001718272094,0.006682184744
70.0,0.0026378587284999998,-0.0019064828839500001,-0.0008603143961500001,0.0045543612075
71.0,-0.0018849313379999998,0.005339406285,-0.00040403095205,0.0063114713020000004
72.0,0.0005410081025000001,-0.002399580786,0.00034141528300000003,0.005054047683
73.0,-0.001530661348,0.002420198094,-0.0009356561659,0.0095714369845
74.0,0.00020966543699999993,0.002582917889,0.00023707324975,0.0078738844985
75.0,0.0002524917557,-0.00116725664775,2.1770863575e-05,0.00120880247545
76.0,-0.00190269887715,0.0032320587494999997,0.000547831455395,0.003993452311
77.0,-0.00069980187745,-0.0017119145373500001,-0.000420793322575,0.0019319376993999998
78.0,0.0044560369115000005,-0.0009203759301535,-5.864711749999985e-06,0.004634491483
79.0,0.0122677477975,0.0047163175025,0.0025033464075,0.014853465016499999
80.0,0.0018094236388500001,-0.0015481420535,-0.0022305577085,0.0050974946865
81.0,-0.0004927634335,0.0017513484425999998,-0.00017012340615,0.0029023575915
82.0,-0.0015701098305,0.0009001995705,-0.00021965441225000004,0.0034685223925
83.0,0.0007498262142999999,3.727938200000008e-05,-0.0007354464256000001,0.0023012709145
84.0,-0.0022077992304,0.00307328927385,-0.00031760331775,0.003945168251
85.0,0.0016057072134999999,-0.00110603731755,-0.00031563897350000004,0.0024681324800000003
86.0,-0.0006686242514000001,0.0013349168026,0.0002977373261,0.0026644796565
87.0,-0.0007585118725000001,0.0019460144774999999,0.0004873149743,0.004023051388
88.0,0.001104641263,-0.001233172149,-0.0005734255298,0.0017697272164999998
89.0,-0.001006788507955,0.0020274375727,-0.000152529434155,0.0023118982142
90.0,-1.933955240000001e-05,0.000928694455365,0.0003199462314,0.0011595658039
91.0,0.000223607260875,-6.26072445e-05,-0.0004910297547,0.001397079139
92.0,-0.00019674192145000002,0.002389366193,-0.000277749018495,0.0025848345044999998
93.0,-0.00020444413475,5.552518024999999e-05,0.00011033791354999998,0.00089533123915
94.0,-9.94457366e-05,0.00025773850070999997,-0.00026151789274999997,0.00087056797455
95.0,-0.0034217066225,0.00459130446,0.00044559071685,0.0057765553825
96.0,0.0011561469553,-0.0002397540545,-4.4692775499999976e-05,0.0022023973870000002
97.0,-0.0002971195625,0.000577683825,-0.00039609591415,0.0029701605675
98.0,-0.00091715249925,0.0026039198432,0.00052849963415,0.0029766466865
99.0,0.0011441406325,-0.0013555872905,-0.0005229323864,0.0020798184855
100.0,-0.00182895668475,0.003164451987,0.00037303018353,0.0037523898795
101.0,0.0005235260614999999,0.0008957346935,0.00085464383165,0.0028284935089999998
102.0,0.0002528928864,-2.2208767799999972e-05,-0.000211171973055,0.0007575932843499999
103.0,-0.0002285159449,0.0006436998271,0.0006908119186,0.0009714886059
104.0,-9.020147449999988e-05,0.000376223534,-0.0006111645883000001,0.0051138860719999995
105.0,-0.00293104414,0.0038983829675,8.5433864585e-05,0.004882153392
106.0,-0.0056619816365,-0.006972098895000001,0.003895037804,0.010598930675
107.0,0.021315188234999997,-0.031800561515,-0.005095581257,0.038929608495000004
108.0,-0.0148066854035,0.01546349649,-0.0014413002268,0.02201772997
109.0,0.0009982104179999999,2.2993014499999957e-05,-0.00407825395845,0.007916386415
110.0,0.0014572977272,0.0013861395190499998,-0.00027316005480000003,0.0025527287935
111.0,0.0009780585828,0.0007574489505000001,-0.00035987823089999997,0.0020332993955
112.0,-0.0009765193464799999,0.0025516963865,-9.739847155000001e-05,0.002922503184
113.0,-0.0022213800453,0.0028421978407500003,-0.00045506908225,0.003663331216
114.0,-0.00030187535664999996,0.00026989379424999997,0.00043439153874999997,0.00153262882465
115.0,-0.00020092765929999995,0.000531717087,0.0005285291751000001,0.0014499778164
116.0,-0.0015199883575,0.0032687423974999998,-0.0007099246458,0.0036958797975
117.0,0.0011833656017,-0.0008356412212,0.0009806723898,0.0017603627510499999
118.0,-0.00065270587141,0.0011405826059,0.000241626544795,0.00137913661635
119.0,-0.001668394009,0.0030503538895,-0.00072049105645,0.003559071365
120.0,0.0009406277129499999,-0.0006916657793,0.0009633884375500001,0.0016021757024
121.0,0.00030665023150000005,0.000445275101825,-4.3013262105000006e-05,0.00063539744135
122.0,-0.00154883030569,0.0024618483605,-0.00038435649955,0.003086041558
123.0,0.0005259478563,9.743185192500001e-05,-0.00010639800820000001,0.00097011371135
124.0,-0.0030201448165,0.001409884122,0.00014178492699999992,0.003727752269
125.0,-0.0034430866320000002,0.0049921743,-7.091544217e-05,0.007972440895
126.0,-0.0037031623729000002,0.0031579869328499997,0.000569106745165,0.005188533408
127.0,0.00083873056645,0.0012984447062000001,-6.275269539999999e-05,0.00200294155
128.0,-0.00012552138749999994,7.354140100000002e-05,-7.305617494999999e-05,0.0028843636734999997
129.0,0.00048943207025,0.0013853069714000001,0.000646533818925,0.0019933110895
130.0,-0.001807577465,0.0033592598753999997,-0.00052954574735,0.0062921264095
131.0,0.0015043147782000002,-0.0011338733281,0.00062502262362,0.0020220450756
132.0,-0.0013530502214,0.001125818034,0.00026618294175,0.0023529169045
133.0,-0.0025439044375000002,0.0037908476585,-0.00039422821749999994,0.0047737477720000004
134.0,0.0105821382055,0.003222536174705,-0.0007842743979999999,0.0123027338635
135.0,-0.00831041973,0.003040818678,-0.0021604304920999997,0.0098108469515
136.0,-0.00222761536406,-0.0018382535414999998,0.0022218390002549998,0.0047010003
137.0,0.004256317054,-0.001518187812,-0.000533604208,0.004550369496
138.0,0.00023668551329999999,0.001785147789,-0.0003105795328,0.0018443186734999999
139.0,-0.00151255505845,0.0011489851783,-6.0280635999999965e-05,0.002706643946
140.0,0.00091201481975,-0.0008490279080500001,-0.00035907477184999996,0.001871091459
141.0,0.0002544732404,-0.00013453148615,0.00021703110149999994,0.0021421411985
142.0,-0.0083571869885,0.0121012793545,-0.0012037205169499999,0.015479601199999998
143.0,0.00016062305875000002,0.00052244216205,0.0008768226757,0.0010662750023500002
144.0,-0.00275991329765,0.0032923664377,5.0679077486e-05,0.0043207929441
145.0,0.0011278845268499998,-0.0002710505425,0.0009227776731999999,0.0020461362045
146.0,-0.00018996285619999999,0.0002826221433,-0.000169137328405,0.0009547377359
147.0,-0.002259059428,0.0026870776860000002,-0.0005792979627149999,0.0036084309274999997
148.0,0.0015317947175,-0.0009398956227,0.00105831811905,0.0023808456785
149.0,-0.00019440633775,6.4569020956e-05,-0.00010710971845000002,0.00056115707135
150.0,0.0008078421208,-0.00141045634,0.0005210252079499999,0.001885507704
151.0,0.0005676812293500001,-0.000521986252,-0.0006640124711,0.0029935676810000002
152.0,-0.0008129312510000001,0.0001457439115000003,0.00076286204242,0.0066902422475
153.0,0.007073997029000001,-0.011982366115,-0.00049444015235,0.013933836580000001
154.0,-0.0025544339775,0.00342388061,0.0004599822126999999,0.00444472966
155.0,-0.0022631538235,0.005791695191,0.000169031361,0.0082800431255
156.0,0.00023836703000000006,-0.0015503077027815,-1.7407935200000006e-05,0.00237762585
157.0,-0.000842811152,0.002236270722,-0.0003479148693,0.003317934303
158.0,-0.00235607983825,0.00342794812465,0.00041351416989999996,0.0050744479645
159.0,0.0013112355155000001,-0.0010426719672,0.0002609647419,0.002837458356
160.0,0.00673254656,-0.0084566058225,2.306466865e-05,0.011695774163000001
161.0,-0.004564331758,0.004164654973,1.51366671065e-05,0.007491395803
162.0,-0.0020361295125,0.0036805814755,0.000299510138015,0.004231453275
163.0,4.330142309999998e-05,0.0011392402639,0.00027441494194999994,0.0016843369015
164.0,0.00043088619997999996,0.0014982513385,-0.000366602639665,0.0016809066655
165.0,-0.0013016958415000002,0.0020772993619999998,-0.0007299391327999999,0.0062609505615
166.0,0.0012225903705,-0.0003075425595,0.00113757358735,0.0022391816645
167.0,-0.00038349678894500003,0.00131241188785,0.000144518349165,0.001444801633
168.0,-0.0022220518575,0.0041054762039999994,-0.0011198880644999998,0.004801155372499999
169.0,0.00123963995565,-0.00103609686645,0.0009904603678,0.0019067266405
170.0,0.0013778740951000002,-5.6671085499999984e-05,-0.00124200343575,0.0021708208155
171.0,0.000405964227,-0.001274053975,0.0009931487285,0.001665642483
172.0,-0.003457160121,0.0026714987914999997,-0.00142640004225,0.0086242449645
173.0,0.0039691600435,-0.004342065284,0.0014525202855,0.0077233766275
174.0,0.00083199902175,-0.00198898876245,-0.0013387192984999998,0.0030540607205
175.0,-0.0005607087275,-0.000758224272,0.0008720765675,0.005981673601500001
176.0,-0.0018806815990000001,0.0047026970804999995,-0.0027605086315,0.0121759653565
177.0,0.0024301010985,-0.0035847638395000003,0.0004261721479999997,0.01608068554
178.0,-0.0011763405145,0.003225094091,0.00123778171856,0.0041166789385
179.0,-0.017567288466,0.023985355985,-0.000892810592165,0.029769009515
180.0,0.0085152287975,-0.003316582405,0.0017694248543,0.023011101425
181.0,0.016659676608,0.01376637916,0.008908830396,0.026621891869999997
182.0,0.00053375084205,0.00021136360600000018,0.003853954314,0.009465083379
183.0,-0.004174599262,0.0039504337625,0.00032646561849999987,0.0066641846550000005
184.0,0.0019266038433500001,-0.004486936608000001,-1.218691499999989e-07,0.00494124958545
185.0,0.0011154735281,0.000448354317,0.000196490736395,0.0026846849775
186.0,-0.00033415457255,0.0012797612089,-1.965839344999999e-05,0.00210374059545
187.0,-0.0006448801848499999,0.001096633142,-0.00035624659742,0.0013519227974999998
188.0,-0.0012474906057,0.0018449538301499998,-0.000571676318025,0.0023294011580999997
189.0,0.00095008951875,-0.00062569640535,0.0003986681324,0.00132978168
190.0,-0.0003822112739,0.0009153752322000001,9.078639855e-05,0.00105896254805
191.0,-0.0010898289926500001,0.002001062839,-0.0006762863253500001,0.00240377192
192.0,0.0006972263458,-0.0002740658773,0.00023242906387,0.0013412192334
193.0,3.5817570000001245e-07,0.00042936201985,4.778258899999977e-06,0.00072519668405
194.0,-0.00019489201565000002,0.0006431385455,0.00016531834433,0.0007219334885
195.0,-0.00128704686077,0.0020531891761,-0.00019932703304999998,0.0025252883117499996
196.0,0.0009572096009,-0.0010045589651,0.0005040948773264999,0.00153854318
197.0,-0.00019821891899999997,0.00060668744735,1.6099203835000002e-05,0.00087503300475
198.0,-0.001530283633,0.00211138608335,-0.0006902194976,0.0027072715644
199.0,0.00073071589075,-0.0006448186149,0.00040983072171499996,0.00107440720945
200.0,2.7915574700000038e-05,0.00011684683199999991,4.4734715395e-05,0.001276590844
201.0,7.789140780000002e-05,-8.696030514999999e-05,-0.00016151356349500002,0.00054717655835
202.0,-0.0019708809295,0.0033039663050000003,0.00016261385615000005,0.0039787213305
203.0,0.01056273156,-0.027879947609999997,-0.0033356165774999997,0.031383365635
204.0,-0.004170122955,-0.008373229974999999,-0.02038774698,0.043296668675
205.0,-0.03106697769,0.02563872803,0.0001043550346,0.04028042164
206.0,0.0033109350035000003,0.001629781324,0.0006437821305000001,0.008150268875
207.0,-0.0096115149425,0.008965865462,-0.00333451978675,0.013639673889
208.0,0.004483979606,-0.0063468861125,-0.001928705582,0.0093307644135
209.0,-0.0044127257905,0.00682627169,0.0016094081344999998,0.019405699505
210.0,-0.010745549854499999,0.0148094678415,0.0011627774480000002,0.01926207404
211.0,0.06248157883,0.011590775198,0.00471495487715,0.065964762955
212.0,-0.013554457265,0.015708683245,0.012909782759,0.039135817695
213.0,0.0025690155625,0.0102557746035,-0.001696173259,0.01126064089
214.0,0.004423241163,-0.004216067847,0.0013740571197,0.0068920055935000005
215.0,0.00123466076955,-0.00030079606780000003,-7.258809294999997e-05,0.0018482169489999999
216.0,-0.0009078263901000001,0.00286807493065,-0.0011225187127,0.00325767039795
217.0,0.0008946358612,-0.002347351933,0.000869739105405,0.002720810006
218.0,-0.0001978779431,-0.000176795083775,0.00014679062105,0.000565237212
219.0,-0.0013346157957500001,0.0027663277272499997,-0.0009499147379,0.0033377740255
220.0,0.0007816107540000001,-0.00196403012425,0.0012269127854499999,0.0024885638289999998
221.0,0.0012618263991,-0.00224212226545,1.7924689100000016e-05,0.0027510658085
222.0,-0.00202498842005,0.0029507011947,-0.000823484004,0.003680583872
223.0,0.00030491849415,-0.00139735335295,0.00077699373635,0.00209659595385
224.0,0.00017395997465999999,-0.00047090544149999995,-0.0001050108489,0.00075372420405
225.0,-0.0007322789375,0.0011910074834999998,-0.00099465931695,0.004383737824
226.0,0.0004002176357,-0.00035820498499999995,0.000952603903,0.002821532867
227.0,7.421907250000008e-05,-0.0064670605475,-0.002386636399,0.009793110212
228.0,-0.003459731866,0.0042953601855,-0.0029742118449999997,0.009449975475
229.0,0.00335315542115,-0.0008670625815000001,0.002648603599,0.00961081905
230.0,0.006467503017,-0.0095810007795,0.00024092808944999993,0.012952119735
231.0,-0.0071348092065,0.0012299920999999997,-0.0002015413995000001,0.014346770804999999
232.0,0.00145117984865,-0.0004194595635,0.0013232766638500001,0.0029298014035
233.0,-0.0044916901995,0.002909912703,-0.0003318153654999999,0.007591041442000001
234.0,-0.0008770133844999998,0.0038063727915,-0.00178886944415,0.0053076234625
235.0,0.0029640481555,-0.0043631617193,0.0007677923105000001,0.00838232958
236.0,0.0006501790585000003,-0.0018171734571500002,0.0013275280970500001,0.0067634810855
237.0,-0.0046102228169999995,0.0059616650235,0.00238396464535,0.0094456048265
238.0,0.003327502723,-0.002870747721,0.0005887009915000003,0.0063570542215
239.0,5.028450749999997e-05,-0.00206026743075,-0.0014029141455,0.0034226905264999998
240.0,-0.0008088165995,0.002585976811,-0.004870900067,0.00557378936
241.0,0.0002467913744999999,-0.0010801066265000003,0.00028537249949999995,0.003985511852000001
242.0,-0.00026146582025,-0.0038478348475000004,-0.0150314162405,0.016106402414500003
243.0,0.00011664646099999987,-0.0017738914955,-0.0018181334235,0.0040290323245
244.0,-0.006126190911,-0.0028787761699999997,0.0035755993065,0.01213947892
245.0,0.0014159244565000002,0.000341483291,4.836025720000002e-05,0.0048297430525
246.0,-0.0015211513459999998,0.00074593957225,-0.0009165273205000001,0.0056409448295
247.0,-0.0017804157255499999,0.002176508301,-0.0010675705810000002,0.0043138306405
248.0,0.001653044053,-0.0026307261100000003,0.0016352548405000002,0.0049266959545
249.0,0.00018057562435000007,0.00057587934915,0.00084012249245,0.0015588063654999999
250.0,-0.00023400730349999992,0.00026486839449999986,-3.075803399999995e-05,0.004780529463
251.0,0.000592066771885,-0.0009936730823500001,-0.00013883902950000008,0.002895450978
252.0,0.0004693932749,0.0012231494835,-0.0006233845001415,0.001703823472
253.0,-0.00093865395285,0.0004018156896,-0.0008799598723000001,0.001767751261
254.0,0.0015839587000000001,-0.00141317368833,0.001038855023,0.003695418469
255.0,0.00020321030355000002,0.0007019748719999999,-0.00046575482700000003,0.003360551436
256.0,9.492429550000004e-05,-0.0003083168149999999,0.001543719568,0.004388692864
257.0,0.0015184689385,-0.0022396150265,0.000502739734045,0.002866923009
258.0,-0.0006253475931,0.0016653850393,-0.00123036902513,0.0026028028933500003
259.0,0.00107484275715,-0.0006851571320000001,-0.0061760097690000005,0.0069729196690000005
260.0,0.001480545118,-0.00227606249055,0.00136574288905,0.0034356866254999997
261.0,0.00021003015504999999,0.0006574674727500001,0.0006735304346,0.002110086875
262.0,0.004419497363500001,-0.0020495919219999997,-0.0022418189914999997,0.0086253368105
263.0,-0.0024515705085,0.0010616610228499999,0.0023161074125,0.003808243921
264.0,0.002593203313,-0.0002808701154999999,-0.0018412414345000002,0.005906626746
265.0,-0.00060424995925,0.0005131833410000001,0.0020421248065,0.004209687933
266.0,-0.000266473334,0.00157325050815,0.0020341224934999997,0.0045472039025
267.0,0.00010697678750000005,0.00016282760300000002,-0.0007349255736999999,0.0029533021715
268.0,0.0008011930896500001,-0.0015274283188999999,0.0007782844402499999,0.0023351133160000002
269.0,0.0011933655638500002,-0.00058663201145,0.00023464511623999998,0.001428612914
270.0,0.0006303955121,0.0001728857055,-0.0010280424494,0.0025523877395
271.0,-0.00015755943000000006,0.0002881686555000001,0.0003886018220000001,0.005143365238
272.0,0.0031281611310000003,-0.003158418074,-0.00071382034062,0.0047704817285
273.0,-0.006725500411,0.005892353187,-0.003972062635000001,0.009917776940000001
274.0,0.003020360555,-0.0003722109056,0.001652392083,0.00346287719
275.0,0.00139649799225,-0.0013137781995,0.000679885714455,0.002095435016
276.0,-0.0011090372106,0.001576055808,-0.0011422058406,0.003788623896
277.0,0.00110022763845,-0.0010601220273,0.00122923569515,0.002102546558
278.0,0.00081075518825,-0.00087842273775,-0.000223102335675,0.0012273391635
279.0,-0.0007314566801000001,0.00189263643,-0.0011740750255,0.002413567021
280.0,0.0015991538051500001,-0.0022757777025,0.001090973961575,0.00316476813
281.0,0.00044923061600000004,0.00037591433499999994,-0.0003433792498,0.00273363827
282.0,0.00015512970949999993,0.0006200686423,7.169069684999997e-05,0.002834812012
283.0,0.00052989816415,-0.0011815482182,0.00079365925435,0.0019363128595
284.0,0.000365328968,0.0011000785241,-0.000949074553965,0.0024528582645
285.0,0.0004898856267000001,-0.0010448741251499998,0.000689507440435,0.0020174689427000002
286.0,0.001666295641,-0.00119571617055,0.00035454819375,0.0021322263525
287.0,-0.0012126202012999999,0.00243138122915,-0.0008878051109,0.0029436400925
288.0,0.002142398472,-0.0028617092829999998,0.0011574235449999999,0.0037972650415
289.0,0.00046216560685000005,2.5756819184999994e-05,9.962458529999999e-05,0.00067983908125
290.0,-0.0007355101955000001,0.0016174450420000002,-0.00092052196002,0.004189634612
291.0,0.0011650901883,-0.0010990397823,0.00110900735895,0.00228691844615
292.0,0.000427169164,0.0004477821105000001,-0.0008395660700000001,0.002165448616
293.0,0.0005302101339999998,-0.00034918439299999994,0.0007068306079,0.005060061653000001
294.0,0.00089430851685,-0.00033085718385,5.8268120415e-05,0.0011001822161500001
295.0,-0.0018456857515,0.0029791901655,-0.001228566073,0.003764928249
296.0,3.950994499999998e-05,-0.00159572657585,0.000816987409495,0.0046593013085
297.0,-0.00069862927605,0.0036257058745,-7.350966119e-05,0.003979420107499999
298.0,0.0016718353418,-0.0024421865044999998,-0.0006635359261,0.003337401722
299.0,0.002457731246,-0.006298077124,0.00225024809585,0.0094483839765
300.0,0.00018656702800000022,-0.0037983890354999997,0.00115895695895,0.011883138916499999
301.0,-0.00155321090485,0.0039806247785,-0.0001550336784,0.004612814913
302.0,-0.00019534220950000002,0.00035150165164999996,-0.0005367407854499999,0.0013592800079000001
303.0,7.943014449999998e-05,-0.00021881477749999983,0.00039062187400999997,0.0035678476805
304.0,0.000407901351,-1.8374572100000007e-05,0.0007797917385,0.002052776877
305.0,2.7490954999999677e-06,0.00047692172599999997,-0.00045168562049999997,0.0020439088555
306.0,0.0002994798029999999,-6.401359699999992e-05,0.0007734748229,0.0045930803915
307.0,0.0001925420354,0.0001834361282,0.000396975214,0.0007060731023999999
308.0,0.001280474522,-0.00203678825,-0.001414278807,0.002790753648
309.0,-0.003982552199,0.007106204238500001,-0.0006354132904,0.008279453698
310.0,0.0006011474365,-0.00332195440065,-0.0003575753905,0.0059309501755
311.0,0.0045849877803499995,-0.00438178907015,0.0005697468097000001,0.00680020435885
312.0,0.00034819702700000007,0.00014747094199999995,0.00034654354,0.0039899291835
313.0,0.0007130936263000001,-0.00096865925095,-0.00024284237444999998,0.00123132318325
314.0,-0.00084547302695,0.00171281989565,-0.0006796089630499999,0.0027876632747499998
315.0,0.00138013517505,-0.0014774304822,0.00051866721935,0.0021470971903999997
316.0,0.0006518845159,-0.0004376222313,3.402637585e-05,0.00082985956865
317.0,-0.0010012765368,0.0015817518556500002,-0.0010810981963,0.002270184416
318.0,0.001843361364,-0.0017579216625000001,0.00033491636525,0.00257498529
319.0,0.0006075306388,-0.0003461233869999999,-0.00025644120427,0.001848784104
320.0,-0.00034466881165,0.0006445674064967,-0.00072980973935,0.001802652019
321.0,0.00130256758215,-0.00128989181165,0.00012908389220000002,0.00217555607135
322.0,0.0005256680854,-0.00073803603355,-0.0007771269228,0.001204810807
323.0,-0.0005806844644,0.00148400758145,-0.00063423469345,0.0022889817443
324.0,0.0011125403187499999,-0.0014134853185000002,0.00022613136235000001,0.001998671238
325.0,3.687217234999996e-05,0.0010971625506900002,-0.000801669560155,0.00186814167505
326.0,0.0007107987055,-0.0008232791784999999,0.00076275049715,0.0028485429654999997
327.0,0.00103054635715,-0.0010676204487499999,-0.000385700329,0.001540446525
328.0,-0.00134497822505,0.0025516329079999997,-0.00065992093715,0.0030011572645
329.0,0.0018790642315,-0.0017410571275,0.0006401152251999999,0.0027610048985
330.0,-0.000241191872855,0.00065314229445,-3.130475054999998e-05,0.0008319374678
331.0,-0.00111161734595,0.0014200075689,-0.0014458940695,0.002331595569
332.0,0.0037910379815,-0.0040128060195,0.00023408979000000003,0.0056367789435
333.0,0.000160075265,0.0021531706717,-0.0009067348284999999,0.0035786814949999995
334.0,0.0055107808122,-0.0127190776425,2.3929217299999996e-05,0.013904581490500001
335.0,-0.0035019112004999998,0.0014943566275999998,-0.00106864663205,0.004415150534
336.0,-0.00026387436450000016,0.0005662635344999998,-0.0006491647595,0.0050627989695
337.0,0.0025818934069999997,-0.0006441176759,-0.0011783082775500002,0.0036948395555000003
338.0,-0.002529406637,0.0052169186869999995,-0.0006122086813000001,0.007455226611
339.0,-0.000127532289,0.0113352793805,0.0040869084393,0.012740252442
340.0,0.01895215958,0.005329314375,0.0068833500580000005,0.02096180508
341.0,0.046078905084999996,-0.008335481096,-0.006978275793499999,0.052741517985
342.0,-0.02862945939,-0.007951826743,-0.01271792993,0.03232063172
343.0,0.056582739395,0.12477670859,0.181332589555,0.23117614287500002
344.0,0.004889722141999999,-0.0471859944735,-0.1032378653005,0.1175572471915
345.0,-0.01715026762,0.0055297376449999994,-0.0029859923934999998,0.028958191
346.0,0.004265192506,0.0019335838730000002,0.0074427912785,0.0103884906925
347.0,0.000513767673,-0.0017560128299999999,0.0055516322980000005,0.008788936365
348.0,0.0007496129758,-0.0003453174962,-0.00034617902794999996,0.0012366517708
349.0,-0.0008422004185500001,0.001943855706,-0.0008949125568000001,0.0024926541925
350.0,0.001243415752,-0.001534619953,0.00063755806765,0.002375073693
351.0,0.00047647158915000007,-0.0005155799534,0.0009924423538,0.001988997538
352.0,-0.0010408268186500001,0.0023414935445,-0.0009486853914300001,0.0029031686245
353.0,0.0022011433375,-0.0023220546715,0.0009302524340499999,0.0033822057924999998
354.0,0.000272450649075,-0.000457836082,0.000558372129795,0.0026874755585
355.0,-0.00016174175749999998,0.0024334036965,-0.00149350575405,0.003241942114
356.0,0.0011274643248,-0.0019571152107,0.0010751464027,0.0025193172424999998
357.0,0.00098574652525,-7.839949672499999e-05,-0.000271890234235,0.0010399622634
358.0,-0.0011792386125,0.0016977073825,-0.0004565469528,0.002612337797
359.0,0.0032090257750000003,-0.005681614122,-0.00112017096925,0.00672094846
360.0,0.0022623855484999998,-0.0125601366665,-0.013355379019,0.021923179469999998
361.0,-0.0064200579085,0.0058318942915,-0.0031152828476999996,0.0100208759625
362.0,-0.0074328862005,0.0049876576135,0.0054659047915,0.0107202537035
363.0,0.0002021999825000001,0.001172660549,-0.0003153546269,0.0044211063254999995
364.0,0.0021884186127,-0.0040720252585,-0.0010033963009,0.0052892150574999994
365.0,-0.00010802418949999986,0.001328193722,-0.0007622516595,0.0074258263395
366.0,-0.0009283805584,0.00186939875365,-0.0009813817424,0.002364277823
367.0,0.0021093143125,-0.000252603247,0.00148241221585,0.004066215208000001
368.0,-0.001806806394,0.00120977938695,-0.001328519369,0.0026892470895
369.0,0.0015358413895,-0.0029145913840000004,0.00147900600735,0.0051302013815
370.0,0.0007485880281000001,0.00037259241,0.00045920139049999997,0.0031486465595
371.0,-0.001690136353165,0.003878852864,0.00013150153499999994,0.0049701056665
372.0,0.0055030517045,-0.0060770537105,0.0049717584025,0.0125475852875
373.0,-0.006013911681000001,0.007145304046,-0.00288793157155,0.0100635244635
374.0,-9.776271299999969e-05,-0.0036947351522,-0.00091323140695,0.0067406050135
375.0,-0.0013903373548499998,-6.809930650000014e-05,-0.00125945465505,0.00568383383
376.0,-0.0015048131541999998,0.0021358362865,-0.0013604187303,0.0045073634285
377.0,0.0007042026412,2.796669929e-05,0.0002872107594,0.0007610345041
378.0,0.000811991705,-0.008006470541,-0.022344503448,0.028164902005
379.0,-0.01129458778825,-0.0026208052035,-0.00100499935725,0.013225772858000001
380.0,-0.0026087438775,0.001491473254,0.0028415928744999997,0.01389891302
381.0,0.0021368097535,-0.0009346385466000001,-0.002045055207,0.0032571573145
382.0,-0.006252636400499999,0.005690204927,0.0011459354063999999,0.00856248218
383.0,0.004564034764,-0.003394133014,0.001419268865,0.0059155470615
384.0,-0.00139588090665,0.00072668134175,9.63002853235e-05,0.00227662238
385.0,-6.83910570000001e-05,0.0011127274048,-0.00047217561789999996,0.0028016526695
386.0,0.0007113183267,0.00015116252195,0.000609417912705,0.001897349256
387.0,-0.0015569657325,0.002115575774505,-0.00032457371648999996,0.0042502705915000005
388.0,0.00083347581383,-0.0005760551978,0.00107803864945,0.00157724030785
389.0,-0.0017740555135000002,0.0007548477507499999,0.000709644577,0.0030858066129999997
390.0,-0.0002485703284,0.00015198693419000002,0.00010039100959999996,0.0009097683741
391.0,-0.0003804149835000001,0.000249331486,-0.0003405697844999999,0.003991881663
392.0,0.00039590787435,0.00064710960905,0.0009139993848499999,0.0012544325105000001
393.0,0.00021245076060000002,-0.00024827692989999996,-0.000641564061225,0.001359996897
394.0,-0.000141410164,0.00010185728010000001,0.00027865046649999995,0.002661034992
395.0,0.00100034391115,4.524551349999997e-05,0.00034226301156,0.002044543713
396.0,-0.0011035571395000001,0.0011151571069999999,-0.0008344984198,0.0028447340399999996
397.0,0.00033007876265000004,-0.00025415625055,0.00055738026315,0.00140174370595
398.0,0.0009315348498,-0.00101155160185,0.00010178444850000001,0.0014211923875
399.0,-0.0016747453097,0.001302674351,-0.00073279601447,0.0022756750876
400.0,0.0014165914207,-0.00132893877095,0.0007274807036999999,0.002220766291
401.0,0.00019887746219999998,0.000108202428615,0.00024670074289999996,0.00033504412365
402.0,-0.0014176370564499999,0.0013225061645500001,-0.0005921951416999999,0.00209758065435
403.0,0.0019222341965,-0.0012968305438,0.00083430578975,0.0024952471184999997
404.0,-0.0007747073299500001,0.00043082112385,-0.0009390278752,0.0018586779865
405.0,0.0022676751435,0.00178840860525,0.007310698165999999,0.007940623799
406.0,-0.0036688673279999997,0.00241202008515,0.0032528215959999997,0.006104564988
407.0,-0.00031067119379999997,-0.0017835584598000001,-0.00294595877305,0.004424153073
408.0,0.00086912833735,-0.001107649656135,-0.00016327951315,0.00170009078185
409.0,0.000370173304,-0.00074782218175,-9.341715655e-05,0.00150876424705
410.0,0.000425616859,-0.00035051715899999997,-0.0025863555355,0.003662889636
411.0,-0.001079281564,0.0005228269261,0.001963323467,0.00230061638
412.0,2.8704414049999963e-05,-0.00074006888035,0.00095079832045,0.00150240601
413.0,0.00028988177771,-0.0006425219688500001,-0.00036868518425,0.00084861901385
414.0,-4.581823104e-05,0.00084921564705,-0.0012353059888000001,0.0018195341085
415.0,0.000787167122755,-0.0005029331226,0.00091209716305,0.00143820113555
416.0,0.0006579181531,-0.00013661318149999998,0.0004973731890000001,0.0023317290100000002
417.0,-9.928125549999996e-05,0.0005381456278,0.001531600447,0.0028858383515
418.0,-0.00119557936985,0.002134262915,-9.649477950000006e-05,0.0032766197950000004
419.0,0.0009802053296000001,-0.0016667171124000002,0.00042195129685,0.002330309969
420.0,0.00019511800080000002,0.0005059910518,0.00031261216775,0.0011461858575
421.0,0.000266639881,-3.548879999999981e-06,-0.00042086442155000005,0.0011123157162499999
422.0,-3.1337733199999997e-05,-4.462594650000008e-05,-0.00072902080405,0.0019241666480000002
423.0,0.000595155834,-0.00047604135905,0.00031140467036,0.0008842244912
424.0,1.3741826650000001e-05,-0.000159074388005,0.00010905713620499999,0.0003604946177
425.0,-0.00147973506585,0.0017740832292500001,-0.0010595641085099998,0.0029351203901
426.0,-0.00039008862155,0.0004319141515,0.001523601563,0.0027807642820000004
427.0,-0.0026577839436,0.0050453823879000005,0.006539499935,0.010044674189
428.0,0.0003981605108,-0.0032281007585,0.00030135129538500004,0.0034217489300000003
429.0,-0.0040469545215,0.004811683796,-0.00011784278194999999,0.01693692874
430.0,-0.0015758768494999994,0.0027355104550000004,0.00025242243552000003,0.018417370675000003
431.0,0.012365432904,-0.01958831832,-0.00018040415300000015,0.023516802895
432.0,-0.0044102557621,0.010954389601,-0.0006728423302,0.012308729113
433.0,-0.00286996324175,0.004803598308000001,7.0183148685e-05,0.008390619998
434.0,0.008743803505500001,-0.0051212254685,-0.003956571891,0.011123870047
435.0,-0.00011489559949999994,-0.00015525904264999994,0.00037053874675,0.0020096860795
436.0,-0.0006035967506499999,0.00108215981605,-0.001358841329,0.0020036239025
437.0,0.00077088444955,-0.00037412712930000005,-0.00015496616374999998,0.0012146478419999998
438.0,0.0018930869411999999,-0.000606282084655,0.0008046854768,0.00223135106145
439.0,-0.0021126780855850002,0.00122041358175,-0.001833351816,0.00357638981
440.0,0.00128566691245,-0.0011233787816500001,0.0005425446135,0.00240257325065
441.0,0.0009493635346,5.752715625000002e-06,0.0003061817021,0.00114022189225
442.0,-0.001159628899,0.00043395657185,-0.00108130315455,0.003113278576
443.0,0.0008240136358000001,-0.0008587943592499999,0.00012544545347,0.00186158185385
444.0,-0.00066457177735,0.00066572052475,-0.0008554840785099999,0.0016158245467
445.0,0.0005024225159,-8.622770581e-05,-0.0005082637871,0.0007198580964
446.0,0.0012441665395,-0.0010836635529999999,0.00090255137025,0.0019421684285
447.0,-0.00045165205919999997,0.0008014963425,-0.00046732672485,0.0019312455844999999
448.0,-0.0003701625024999999,0.00021400764650000002,0.0006870934446,0.003390087732
449.0,0.0013764719001499999,-0.0010480687077,0.0001898504680525,0.00205039386025
450.0,-0.0014035091578,0.0013953506210500001,-0.0003773135221,0.0021493568715
451.0,0.0013835277365,-0.00138667888705,0.00050158800635,0.0021393588280000002
452.0,-0.00018605475050000001,-0.00012784991780000004,-0.000114883922765,0.0007638245217
453.0,-0.001580562274,0.00149135885725,-0.0005881998809,0.002412757807
454.0,0.00177909820275,-0.0012503114425,0.00090356678752,0.0025583757745
455.0,-0.00046941927435,0.00127499035165,-0.0005480927973500001,0.002552964629
456.0,4.992655745e-05,-0.00072171595471,0.0004926586906,0.0016375102577999999
457.0,0.0010881620509,-0.00137760835315,6.567610154999999e-05,0.002070041909
458.0,-0.0013971757370000002,0.001404189265,-0.0007174097038999999,0.00247105661
459.0,-0.028425487255,0.04602711436,-0.01845651185225,0.068480350515
460.0,-0.074066184375,0.06818601661,-0.018439555955,0.1056666909
461.0,0.001735443778,-0.00876471007,0.011222551611,0.019686691945
462.0,0.08609855081,0.05764940996,0.0468258079,0.12350851804999999
463.0,-0.040288294895,-0.0146675034225,-0.00846248824,0.093777857125
464.0,-0.0429494481245,0.0055304463104999995,-0.0117176645255,0.046832086075500004
465.0,-0.0026951007104999997,0.003568758277,0.0018190862449999987,0.020048591669999997
466.0,-0.0017685812365000001,0.004641300515,0.0062685757065,0.026300851935
467.0,0.009651815929999998,-0.012312309783500001,0.004719367487,0.030896301325
468.0,-0.0006669979909999998,-0.0021705247085,-0.0017332674034000002,0.007715155679
469.0,0.0031760315203000003,-0.0004186689576,-0.00046583917795000007,0.0038908027774999998
470.0,0.00025361119200000004,9.4839908145e-05,0.0005347929888000001,0.0011531292319500001
471.0,-0.033676003637000004,0.00113242156775,-0.0195874480845,0.040233900337
472.0,-0.0096135608,-0.0005552094342999999,0.004970361750499999,0.014630373621
473.0,-0.0029992051510000003,-0.00015558763499999996,-0.000213124242,0.003441782729
474.0,-0.0018527599478,-0.00133143034415,-0.002345767864,0.003651487229
475.0,-0.00110791607135,-0.0004435746185000001,0.0004125678076,0.0028613494655
476.0,0.0306689810249,-0.01030773681515,0.0013518996865,0.033054228695499996
477.0,0.017174437074499997,0.0030906510705,0.018998571292500002,0.032520917045
478.0,-0.0104188278395,-0.000460768185,-0.007564762713,0.013509838935
479.0,-0.0006218806238,-0.002088214079,-0.002232414644,0.003119462885
480.0,0.000816022151,6.024631235000001e-05,-0.0013047515605,0.001712075873
481.0,-0.0038601670244000005,-9.804780311499999e-05,-5.864250149999997e-05,0.0066109459185
482.0,-0.00073117388885,0.00063760607875,0.0036923552775,0.0039293454005
483.0,0.0018740728288,-0.0016931455454999998,0.0041896637235,0.006339915805999999
484.0,0.00341465113915,-0.0028333593157,0.0009574813409999998,0.0067861322969999995
485.0,-0.0014735108618,0.0033350468580000004,0.0007979175785000001,0.004567879483
486.0,8.474869480000003e-05,-0.0009631005402,-0.0006603647837,0.001375938753
487.0,-0.0381998128742,0.0082048290085,-0.01270758263,0.044863679049999994
488.0,-0.000297486058,-0.0026820743475,0.00014125122274999998,0.0059099847215000004
489.0,0.0002709878289,-0.00128080214435,2.3246998449999966e-05,0.0016294152959500001
490.0,0.00016622891073,-0.00036481882025,0.00037693526019999996,0.00067336398475
491.0,0.00041151045394999995,-0.001437694065,-4.8162563949999984e-05,0.0017084014525
492.0,0.00022421771542,5.2676762149999994e-05,0.0007054438916,0.00086303115665
493.0,-0.0015027145515,0.0004063340899999999,-0.0005855928870000002,0.0043496250024999995
494.0,0.001326296588,-0.00165841142265,0.0012571903362375001,0.00274984181
495.0,-0.0046572505355,2.098015249999991e-05,-0.005253691538,0.010568592089999999
496.0,0.0024410479259999998,0.00272905955755,0.0038825086245,0.0060740482119999994
497.0,0.0007425787464,-0.0032059055865000003,-0.00174066062725,0.0057757429829999995
498.0,-0.00016210529290000002,0.0005339447264,0.00041438410215,0.0012427889998
499.0,-0.00064554750035,-0.00039035935589999996,-0.0006143474985499999,0.00135692424445
500.0,-0.00053100310515,0.00115104041555,0.00035643498254,0.001363394056
501.0,-0.0005622835094000001,0.0008112490860000001,2.7960590899999988e-05,0.0012876085686999998
502.0,0.0004800143975,0.00124027712425,0.00023749329950000002,0.0027299833059999997
503.0,-0.000206311123795,0.0004484619645,0.00029414037950000003,0.002394512218
504.0,0.00032830021489499997,-0.00020884233295000003,-0.0001597001449,0.00056154447305
505.0,-0.0021751638155,0.0030907473535,0.00025941776432,0.0038255560190000003
506.0,0.001750109005,-0.00060217698127,0.000606400904923,0.0020417786905000002
507.0,-0.001645362945,-0.00056707822745,-0.0007050566108499999,0.003332079253
508.0,0.0012481898941999999,0.00039313079850000006,0.00086668822363,0.00244285964
509.0,5.01076837e-05,0.00038971854215,0.0005553005384,0.00092122964505
510.0,0.00034222477025000003,-0.00046770605390000005,-6.500602520000001e-05,0.0013081109645
511.0,-0.00030657369186999997,0.0002700823528,0.0005533115221999999,0.0009362431558000001
512.0,0.00012822663319999998,0.00011752841895000001,2.143270215000003e-05,0.0010139893224
513.0,-0.0002664997032,0.0005713506173,0.0001576012503,0.0006498475004
514.0,-0.0008566607333,-0.00025797308,-0.0001332718233,0.0014731874015
515.0,0.001295246912025,-0.00096847762715,0.0009319280311000001,0.00256824130685
516.0,0.0216353083025,-0.006120111049339999,-9.799550464999998e-05,0.0246302719645
517.0,0.021521964045,-0.006240486562,0.02095734504,0.03127479777
518.0,-0.0015378949899999999,0.0030515596394999995,-0.0037216442952,0.010645280321000001
519.0,0.0007911563173999998,-0.0012332481567499999,0.00094696477285,0.002772605923
520.0,0.00946287611715,-0.024881802440500003,-0.013664329589,0.03100057758
521.0,-0.08687509696500001,-0.212207297995,-0.072818004275,0.2604550989
522.0,0.037366988049999994,-0.161831883845,-0.041886371242500005,0.3082164585
523.0,0.013991564095000006,-0.12600244357999998,-0.038389178621,0.17627095835
524.0,0.016388828565,-0.16491545540000002,0.040309556175,0.20701657205000001
525.0,0.010569453724999999,0.45869157255000004,0.16354417145,0.49282878555
526.0,-0.035774559565,0.031336448899999994,-0.152110600515,0.2957513895
527.0,0.02636950817,0.05726393134,0.017681103685,0.076459239805
528.0,-0.003435260098,0.05253583915,0.0040725171635,0.05283865989
529.0,0.054650435574999996,0.04204050994,0.0197840249315,0.085760395335
530.0,0.034311219005000004,0.0155838170555,0.010238655173,0.040711190130000005
531.0,0.0068702453315,0.01170875051385,-0.000834665115685,0.019867595271499998
532.0,-0.0046310011844999995,0.0009254094316,-0.0016392336093000001,0.010145924577
533.0,0.014328021709500002,0.0049434219185,-0.0001647908072,0.01997196219
534.0,-0.006021622128,-0.0018069354779,0.0010657041017500001,0.00722195254
535.0,0.00010680920425,-0.0005123184116999999,0.0008768373759500001,0.0012586290667
536.0,-0.000613233666,0.0020929748607,-0.00075500212235,0.00249327030775
537.0,0.0020414469304999997,-0.00154354935055,0.0004081788637,0.002826536119
538.0,0.00018509681902999998,-0.00087325571015,-7.884417150000003e-06,0.0009265038117500001
539.0,-0.0016866172729999998,0.0028003447380000003,-0.000617746394905,0.003397866439
540.0,0.001540262446,-0.00157306913295,0.00100859952165,0.00247937912
541.0,1.6625067000000042e-06,0.0003080252562465,-0.00018340943945,0.00060442771005
542.0,-0.0015912587827000002,0.002473057268,-0.00082461713055,0.0034240704364999998
543.0,0.00148082973555,-0.001383107142075,0.00031795489424999996,0.00219902483145
544.0,0.00013895287620000003,-0.0001503161232,-0.00019025003399999996,0.0009767968949
545.0,-0.0017657233219999999,0.0022004298600000003,-0.0001420289907,0.004587590312
546.0,0.0031471154515000004,-0.0074608268855,-0.00022126702644999997,0.0081681776355
547.0,-0.00036694700645,0.0032408865235,-0.00068802522735,0.00340315581
548.0,-0.003586112216,0.00144311473,0.0002076310019,0.003871161529
549.0,0.00031724327050000004,0.0028877952409999998,0.0013512049325,0.005522634048
550.0,-0.0002742997512,-0.0010109564297,-0.0006409202047,0.001302397603
551.0,-0.002131832097,0.00228877156495,-0.0003413843104,0.003393493848
552.0,0.00088397737175,-0.00056641035735,0.00033480354,0.00116944665085
553.0,-7.837515905e-05,-4.4797193000000054e-05,-0.0005028050931499999,0.0014894439039999999
554.0,-0.0009742875575,0.003182357134,-0.0005333655611999999,0.004434037167000001
555.0,0.000849273859095,-0.0006913352193,0.00043825887144999996,0.0015138649207
556.0,-0.000868940244,0.0008457717780000001,-0.00038967213615,0.0027543382210000003
557.0,0.0004925157455000001,-7.213261550000007e-05,-0.000413971097,0.003339420599
558.0,0.0007495538139500001,-0.0006730972456000001,0.0007386767367,0.001293082672
559.0,-0.001842589309455,0.0023681243550500003,-0.00124059850705,0.0038666621100000003
560.0,0.0009584518048,-0.001099370669,0.000866324732,0.00173750411825
561.0,0.00102295240115,-0.00091943074055,-0.0002758960164,0.0014731708358
562.0,-0.002350105961,0.0025543992905,-0.0010150993185999999,0.0036360021125
563.0,0.0016597656023000001,-0.00179799902495,0.0003238068565,0.0028748770735
564.0,0.005838906856199999,-0.01899496544,-0.00123999665088,0.02027469724
565.0,-0.0053225989185,-0.0029687635365,-0.003321898718,0.011111133910000001
566.0,0.0019801194715,0.0026256623155000002,0.00290023899255,0.006500490003000001
567.0,-0.00442259496415,0.0083119517565,-0.000683391672,0.010554898647
568.0,-0.018230516915,-0.02151149385,-0.022281909396000003,0.0399110637
569.0,-0.0480715931925,-0.0028721336775000003,0.00669850245935,0.0540424598255
570.0,-0.0019144407839999998,0.00020705764499999988,-0.00032734179934999996,0.0051993040429999995
571.0,0.004284107574,-0.00511073497315,0.00063708653555,0.0068324550395
572.0,-0.0043226272215,0.004342832582,0.0002833703473,0.006177888555
573.0,0.0009387363315000001,-0.00445451589,-0.0009635027219500001,0.0086070894085
574.0,0.010984865493,-0.00753095932875,0.0008288467432999999,0.013585949456500001
575.0,-0.009333711706,0.0084927275195,-0.002367130305,0.012874925115
576.0,0.005471474176349999,-0.00674189939922,0.00182170191535,0.010285607942499999
577.0,0.00802242353,-0.004303625488,0.00052255319925,0.0093177004955
578.0,-0.0042758575075000005,0.0030924891735,-0.0011800850799500002,0.0064907676015
579.0,0.00154432699105,-0.0020632885155000003,0.00078927447925,0.002702643542
580.0,-0.0030140587425,0.002732820795,-0.00150288395785,0.0043743229915
581.0,0.0010593709073,0.00017192603463,0.0015332404930000001,0.00206627218565
582.0,-0.006672439668,0.0127377825,-0.003343645104,0.01476321499
583.0,0.06489245519,0.0169517310975,-0.013520004611,0.073841872075
584.0,-0.0010635121404999998,0.02085685857,0.012606260158,0.024801062885000003
585.0,0.0017593022318000001,0.0006906815517,-0.0026818447313000002,0.0039481120435
586.0,-0.0013399176028999998,0.00042105482795000003,0.0008979268755,0.0039522145105
587.0,-7.157983234999996e-05,0.0003464402285,9.355795635e-05,0.0017893149815
588.0,-0.00065336845515,0.0025963770047,-0.0009976993484000002,0.00320444531605
589.0,0.00247646886015,-0.00170076384195,0.0012574033222,0.0033235858767
590.0,0.00052423904625,-0.0009028257315499999,-0.0006138771006499999,0.0019789912335
591.0,-0.003348872134,0.002239473518,-0.002165341856,0.0046968159879999995
592.0,0.0019562374705,-0.001862059669,0.0021869173055,0.003476714659
593.0,0.0010674463735000001,0.00014387453479999996,0.000261160493115,0.0013434487605
594.0,-0.00168582391445,0.0018313379214,-0.0016920271268,0.0034236487955
595.0,0.00112455023925,-0.0009573625775,0.0011719720783,0.0021791874570000003
596.0,2.9572974899999983e-05,0.0009920202634,-0.00032580470465000004,0.0016617235565
597.0,-0.0007285745130000001,0.00151899700285,-0.0005616090694999999,0.0039438293525
598.0,0.00066423465695,-0.00115027005215,0.0006472599659,0.001761262394
599.0,-0.0003406998507,0.0006061790799,-0.0011439841692499999,0.0017357520005
600.0,-0.0014782437789500002,0.001914091591,0.0007615069050000001,0.004865279306
601.0,0.001377686753,-0.0015835085285999999,0.000206163189,0.00247642211355
602.0,-0.0016250922939,0.0026272910225,-0.00167738893345,0.0035231099645000002
603.0,0.0004176677401,-0.00019550646255,0.0016167290015000001,0.001748661775
604.0,0.0012568601605,-0.0005492133491499999,-9.058165595e-05,0.0019153971955
605.0,-0.00162928177995,0.0022677586655,-0.0021717544275,0.0036525033045000004
606.0,0.0011443999877,-0.0015478968395,0.00117680300135,0.0024110408559999998
607.0,0.000382192496815,0.0007461062106000001,-0.000375222052355,0.00110144145135
608.0,0.0027471683994500003,0.002561112544,-0.00017958558299999996,0.005228950808
609.0,-0.03780122175,-0.020410885277,0.006362773779999997,0.19560965995000001
610.0,0.007246691654999998,-0.009745949745,-0.004999098895,0.088958814105
611.0,-0.036161208425,-0.017544533155,0.00624894477045,0.06520000149499999
612.0,0.025890811015,0.0071838130520000005,-0.0044685822675,0.055439886960000004
613.0,-0.02486809448,0.00776636303505,-0.0002308920472,0.027465155919999998
614.0,-0.005617890836,-0.005028090394,0.0022054315895,0.0111047132655
615.0,0.0036952517579999997,-0.00165386432,0.0005131643715,0.004929192734
616.0,0.001760735177,0.002294053314,0.002992129518,0.00416121473
617.0,-0.0022556530975,0.0028193075365,-0.0011651413406,0.003855328499
618.0,0.002762801678,-0.0007228411335,0.00095244537625,0.003877272572
619.0,0.0033298143775000004,-0.00291712547,0.000253590416,0.0046529058085
620.0,-0.0040505566273,0.0044381085387,-0.00117956485545,0.0065935330305000005
621.0,-0.00098607672715,0.0036072493509999998,0.0006633736441999999,0.0041072251770000005
622.0,0.0044981422035,-0.00401642552,0.00031411278810000005,0.006094941643
623.0,-0.0020444644934999997,0.0013891785409999998,-0.0020094992912,0.00722752919
624.0,-0.00092157469995,0.00205076345695,0.00041031694,0.0024259556715
625.0,0.0059845694884999995,-0.0061009403625,0.0006405023306,0.008600482786
626.0,-0.0064308837205,0.004521740808,-0.0024495163797,0.0085732430505
627.0,0.006142753157999999,-0.005541740296,0.00093240078055,0.008390529635000001
628.0,-0.00250606282,0.0028542503869999998,-0.0015233816743,0.006952223373
629.0,-0.0014159657820000003,0.0014001253660000002,5.381574399999998e-05,0.005275434166
630.0,0.002708960852,-0.0035877798995,0.00010791267345,0.00459298985
631.0,-0.004020643626,0.0042223891505,-0.0018597745731999999,0.0061636027855
632.0,0.0026527346505,-0.00159146105785,0.0013418300319,0.0035318535205
633.0,-0.0025822534435,0.0024389874317,-0.0027085281045,0.0054699661485
634.0,0.003268138284,-0.0025760733164,0.00119139504935,0.0045582286755
635.0,-0.0010259374864499998,0.0013019650233,-0.0009719644940335,0.0023107234904999998
636.0,-0.0018169279940000002,0.002494329452,-0.0008438986765,0.0084002239685
637.0,0.0021039512163999997,-0.0012973934326,2.5168355399999984e-05,0.00287948156475
638.0,-0.00375614402225,0.0033791086012,-0.002582726146,0.0060467718784500005
639.0,0.0030632419785,-0.00194965469135,0.0005564276633,0.0039602914785
640.0,0.0011564570083,-0.00023891379605,0.0002989608209,0.0014742573583
641.0,-0.0045129431559999995,0.0040414045185,-0.002704195025,0.006678171849999999
642.0,0.0040038035425,-0.0029610007150000003,0.00134455257465,0.0051593591495
643.0,-0.00321967396255,0.0026190183652,-0.00235509999805,0.005917236706
644.0,0.0022544014616,-0.00104581552815,0.001014320171392,0.0034676724053
645.0,0.00069360442335,5.345870349999994e-05,2.2102236349999982e-05,0.00174013085
646.0,-0.0038173123965499997,0.0031310207089999998,-0.0023675156318149998,0.005639216158499999
647.0,0.0033043300064999996,-0.0022639521723500002,0.0009333966880000001,0.00417405954
648.0,-0.002074117948,0.0019533619462,-0.0018907863904500002,0.0038455010433
649.0,0.00047276208549999993,-0.0007291483675000003,-0.00039725012850000006,0.007097900295
650.0,0.003472062275,-0.001238435918,0.001302537873,0.003909673244
651.0,-0.0009724399638999999,0.0003858680115000001,-0.0011228634563,0.0024650006295
652.0,-0.000739790472,0.000813474913,-0.0008654496925,0.0078818765165
653.0,0.0009912809803,-0.00158394192,-0.0001506521121,0.002077907505
654.0,-0.004128060947,0.0038905799315000003,-0.0023978367656,0.006271574872
655.0,0.0048501699335,-0.0062594921945,0.002355076207,0.008328539598
656.0,0.005133246896,-0.0021483890628150003,0.0002806424935000001,0.0059102391720000005
657.0,-0.00171363248285,0.001656999998466,-0.0007460171680000001,0.0048414880975
658.0,0.002042522962,-9.463541699999988e-05,0.0004972189920000001,0.004488068899
659.0,-0.007819092831000001,0.005666504671,-0.0037250121850000003,0.010503465346499999
660.0,0.006530246743,-0.006056219143000001,0.00160303533335,0.009185137514
661.0,0.0023814868524999998,-0.00048784261999999996,-0.0004747757510000001,0.0064471294525
662.0,-0.006310905871,0.0048709959385,-0.003221010298,0.0087032090905
663.0,0.0025679007984999998,-0.0021511417125,0.00155452118119,0.0038371003495
664.0,-0.00227197162425,0.00247962829705,-0.0029128139285,0.0045613612335000005
665.0,0.001098079687,-0.00109397504,0.0003302938535,0.0046724067424999995
666.0,0.0008067150770867,-0.00022191230849999996,-0.00039595358535,0.001974364171
667.0,-0.00404171391825,0.0029361248245,-0.0033487638165,0.00685968263
668.0,0.002556196042,-0.0026311611220000003,0.00045973184745,0.0039165250365
669.0,0.0014219042645,-0.001538492867,-0.0013320712545,0.0041863113475
670.0,-0.0025310437330000003,0.00336126219415,-0.0014023213505599999,0.0051223194938
671.0,0.00271321066601,-0.0020283891809,0.00047649486805,0.0036566452716999998
672.0,-0.004054474231,0.00407221751722,-0.0026367875044999997,0.0070831222215
673.0,0.00251165000215,-0.0028621177415,-3.05381070000001e-05,0.0049639400175
674.0,0.00037407288889999997,-0.00047995297775,-0.0010039732351500002,0.0018556883735000001
675.0,-0.0042805131797,0.0032066882395,-0.00224816155085,0.0066334739065
676.0,0.003250164087,-0.0032082891795,0.00095294347765,0.0047249518295
677.0,-0.0038632302676000004,0.0045839285765,-0.0038460978145,0.009188269363
678.0,0.0006437927725000001,0.00040881029640000004,0.00011248214849999996,0.0029386815805
679.0,0.0031714754035,-0.0041387627439999995,5.8953735755e-05,0.0054171159055
680.0,-0.002795102641,0.001863618969,-0.0029899354295,0.004585865244
681.0,0.00155783105445,-0.0015827490954999999,0.0004365698083,0.0023322594185
682.0,0.0005486561782,-0.00212929268755,-0.00055211699995,0.00237389435275
683.0,-0.006743501317,0.0013060891103,-0.004538034907,0.008477944788
684.0,-0.00126393905,0.01380813317,0.001425350614,0.01393892779
685.0,0.0021517566979999997,-0.00311944919725,-5.6853676550000016e-05,0.0038388708155
686.0,-0.0026450651015,0.0014912903495000003,-0.002434337329,0.0045044153255
687.0,9.835663900000001e-05,0.0006588392277,8.5915852015e-05,0.002821173091
688.0,0.0010472370365999998,-0.0028667287664,2.2784742499999937e-05,0.003897465573
689.0,-0.0002057688795,-0.001567338963,-0.0011969405288999998,0.00268947646
690.0,-0.00151353767005,0.0027144846115,-0.00029139945699999993,0.0037889757485
691.0,-0.0007819010782,0.00024171020169999998,-5.7590869100000025e-05,0.0013472972455
692.0,0.0016301276811,-0.0025288056635,0.00054252352675,0.0033294040755
693.0,0.00064336641575,-0.001943587311,-0.00028555719789,0.002121920906
694.0,-0.009561789641149999,0.0083668061005,-0.002949852032,0.0141313969125
695.0,-0.0020828991600000003,0.0018191844219999998,0.00151305781635,0.01467206347
696.0,0.0018993428814000001,-0.001674565815275,-0.000581257504105,0.003065908078
697.0,-0.0016634928804999999,0.000743996497,-0.00071498966675,0.003522080707
698.0,0.00145396317465,-0.0024957436734999996,-7.801472985000002e-05,0.002956639152
699.0,-0.0023618584645499997,0.0010483974247,-0.0012748797609000002,0.0032094861022500002
700.0,0.00076473268045,-0.0008534817499999999,0.0009988128942,0.0029656400575
701.0,0.00086423025385,-0.0022732457155,-0.00048390426272,0.0025361380415
702.0,-0.0030633495695,0.0009039897750000001,-0.0005719771003750001,0.0038819331155
703.0,0.00147820641195,-0.0010964092935,0.0008942797614,0.002350227804
704.0,-0.00094345905215,0.00046034167900000007,-0.0004931998219100001,0.0022202541985
705.0,-0.00029682708600000003,-0.00100680962475,0.00015202620100000005,0.0029303617719999998
706.0,0.0006901997133999999,-0.000674697065,0.0007623193600499999,0.0014686294594500001
707.0,-0.0015329081297500002,-0.0010547815392,-0.0012464194828565001,0.0029897616179999998
708.0,-8.793716899999993e-05,-0.000556322181,0.0009166842084500001,0.002951673634
709.0,0.00036687054449999993,-0.009783485807499999,-0.00167439164595,0.014857113089500001
710.0,-0.0037287612235000003,0.010998145072,0.0013638542525,0.011797630551499998
711.0,0.0063772808245,-0.01717029582,0.00074925258365,0.01855492479
712.0,-0.00228880292885,0.01034171693,0.00031846953105,0.010893988888
713.0,-0.005045365661,-0.0036097159790000003,-0.0017053350015499998,0.0094462643635
714.0,0.007380398454,-0.0018961874415,0.0028938550239999998,0.0082500698925
715.0,-0.0068019627095,-0.002156586261,-0.0032887942478,0.0080179888325
716.0,0.0012244657045,0.00425897849676,0.0025436869464999998,0.0056563813485
717.0,-0.00135821862345,-0.00020838651750000007,-0.000606488044,0.002249894334
718.0,-0.0026772145555,0.00111842790625,-0.00070713524475,0.003235096481
719.0,0.001018757736,-0.002231745314,0.001150735461,0.002709750279
720.0,0.00073409162705,-0.0011583659298,0.0006733710508500001,0.00162852228645
721.0,-0.00103766402875,0.0003109798189000001,-0.00023717961705000003,0.00144696903275
722.0,-0.0002511966375,-0.0011402198280000002,0.00036721996950000004,0.0044938298855
723.0,0.000325938063555,-0.00059288147585,0.000604918137,0.00097266024645
724.0,-0.0024417062703500003,0.0014982201415,-0.0009942608566150001,0.004768134514
725.0,0.000926715177905,-0.00102299073585,0.0011141214497,0.0018622629275
726.0,0.00047859861125000005,-0.0015474558483,0.00038727268060000005,0.00187562946605
727.0,-0.00041045993544999997,0.000626326480295,-0.0006879177266,0.0019340469275
728.0,-0.0008306784954050001,0.0007119532846,-5.095878641e-05,0.00122461696675
729.0,-0.004930261744,0.0026093369015,-0.0014839468391,0.0061769210735
730.0,0.0040322552165,-0.0069781107475,0.00145531893105,0.008461523579
731.0,-0.0008461149454999999,0.0003768126854999999,-0.0006226067735,0.0043442280775
732.0,-0.0022920087940999996,0.0030831822385,-0.0003406598325,0.0044110155160000004
733.0,0.00179457134905,-0.0011764787872999998,0.0004983680322,0.0027057002619
734.0,-0.00213777059305,0.00045460043035,-0.0013356622568,0.0026692693601500003
735.0,0.001346400471,0.00081344318625,0.0019598420832499996,0.00427052124
736.0,0.00394170717385,-0.00576281640615,8.735059039999998e-05,0.0070714860997
737.0,-0.004134061792,0.0025078963345,-0.000873109701955,0.004957729806
738.0,0.0017308118277500001,-0.002644710067,0.000487327777685,0.00332307692
739.0,-0.00032248373585,0.0004566475195,0.00022111163764999999,0.002405174467
740.0,-0.011150482754000001,0.0126523661205,-0.0017811255415,0.017250844398
741.0,0.01391898213,-0.0116443263045,0.004467913945,0.018977432105
742.0,-0.006593638088,0.0035926313575,-0.0028293073545,0.008166404475
743.0,0.0013637184184999997,-0.0024444599655,0.0014781506355,0.008636771362
744.0,0.0044999312245,-0.00286560440325,0.00167723431125,0.0071258441635
745.0,-0.0009917481802,-0.0009055209788,-0.000620588574885,0.0016743663045
746.0,-0.008240804971,0.007167448953,-0.002417277817,0.011225867281500001
747.0,0.0030759546525,-0.003386837236,0.002266257725,0.005243314519
748.0,-0.0004315399885000005,-0.0002840052900000001,-0.0010031110759999998,0.01411989467
749.0,-0.0036911927075,0.003053736033,-0.00059255435465,0.004904185546
750.0,0.0017026646230000001,-0.0025355716865,0.0008377220979,0.003233183637
751.0,-0.00059604684025,-0.0004499470655,0.00030112876984999995,0.0030976102319999997
752.0,-0.0005948613855000003,0.005788216799,-0.0010366903169999999,0.007836411054
753.0,0.01933302014,-0.00656809272,0.001081829347,0.02044690354
754.0,-0.0019277139345000001,-0.0028399398834,0.0018807952963499999,0.011528957675
755.0,-0.00187470797685,0.0017287482612000002,-0.0010646319156,0.0046110015965
756.0,-0.008715243033,-0.0016252912315,0.0021154919387,0.010451427943
757.0,0.004232971514000001,0.00046011968745,-0.0006955218475,0.0112161006525
758.0,-0.0018768824604999998,-0.0021241769815,0.000570664370717,0.006726432551
759.0,-0.0019267307700000002,0.00267455917,0.0006755101745099999,0.0078441557295
760.0,-0.0038169514294999997,-8.463421300000011e-05,-0.0003552636092,0.004555453815
761.0,-0.008726232755,-0.0021254915272,0.0062594995655,0.011123389790999999
762.0,0.0072902592119999995,0.00127570823579,-0.0044992609845,0.010528343752
763.0,-0.004767278275499999,0.0032772141264,-0.0008989625368,0.0067236804689999995
764.0,0.0015684240614,-0.0033345296495,0.0014092892785000002,0.004199881629
765.0,1.7506558900000016e-06,-0.00101806131865,0.0009051214506480001,0.0014096349327999999
766.0,-0.002830984226,0.00475281926225,-0.00047571783799999997,0.006446115304
767.0,0.0011103431190000001,-0.00211420923,0.001180718565,0.0058043048415000005
768.0,0.00021481651390000003,-0.0011983019525,0.0006326966093000001,0.0021966215230000002
769.0,-0.002463598811,0.001552854217,-0.00074319704315,0.0033411394224999997
770.0,0.00063682340685,-0.0011381252541,0.00158536853725,0.0022219507648
771.0,-0.00075427553495,-0.00026825864975,-0.00019417854889999998,0.00104986251385
772.0,-0.001024102792,0.0002858538145,0.0006247423080000001,0.005505907618
773.0,0.0003460522983,-0.00063244205575,0.000607275561765,0.0010863479729
774.0,-0.0025296956778000004,0.00125860226085,-0.00105671121925,0.0032903437462
775.0,0.0009615148724449999,-0.0014472047081,0.00100404815025,0.00215676110435
776.0,-0.000690999466,0.00099577872535,0.0005732439167,0.00207920633965
777.0,-0.0018931781831,0.00032273277085,-0.001160483681,0.0024279075875
778.0,0.00073056655955,-0.001680135154,0.000648472424,0.0030632242435
779.0,-0.0015180482981000001,0.0021890441215,0.000559039691235,0.0034872202870000002
780.0,-0.0007935468054999999,0.0007362504619999999,0.0005910843700000001,0.0036307410175000004
781.0,-0.00027378839805000004,-0.000393345555,0.00044054242295000004,0.00163800973
782.0,-0.00112023308,0.0008818695355000001,-0.00040259554644999995,0.004123345408
783.0,-0.00010512249915,-0.00037100199635,0.0011925904814,0.0016005537044999998
784.0,-6.1984972999999915e-06,-0.0004963735597850001,0.000251339503675,0.0008078775894499999
785.0,-0.0025232810475,0.001549145501,-0.00097055679245,0.003328177499
786.0,0.0012779005315,-0.00088351000735,0.001524254569545,0.002552739866
787.0,0.0001062542958,-0.000719695457,0.0006563376428,0.0009798115265
788.0,0.009328353184,-0.0027261735279999998,-0.0025106037395,0.012103383883000002
789.0,0.0026383775400000004,-0.008335236654,0.0023696627310000004,0.023521929855
790.0,-0.011701414458,-0.00291004776715,0.0020704540385,0.0148460025245
791.0,-0.0013712799025,0.007689438228000001,0.0006401303919500001,0.0082453517995
792.0,0.0009503710387,9.328081249999984e-05,0.0012644324995,0.0031111700495
793.0,-0.0015005513265,0.0011126125005,-0.00096298827135,0.0022153620055
794.0,0.0024023163525,-0.0018658430965,0.001567717031,0.0034277319825000005
795.0,-0.000114409379,-0.0037223392705,0.0011756199679499998,0.005418591955500001
796.0,-0.0080352184015,0.008243703544499999,-0.001180255678,0.0117645050835
797.0,0.00487473522125,-0.00980830146465,0.0050858365295,0.013290127005000001
798.0,-0.0011290240204999999,0.0013679207060000001,-0.0018512000559999999,0.0104376980915
799.0,0.0014258397871000001,-0.003011395566,0.0013795940506499999,0.0037570529205
800.0,-0.00247573387555,0.00337311319355,-0.00037860642954,0.004960224256050001
801.0,-0.0001790470524999999,-0.001390187688,-0.00019661555,0.0030334009485000002
802.0,-0.00040103584849999997,0.0006677358999999999,0.0006982351838,0.007021124125499999
803.0,0.0035876527673,-0.0040687489225,0.0007775732868499999,0.0058914246750000005
804.0,-0.0069957419764999995,0.006569301037,-0.0022637405825,0.009982679529499999
805.0,0.00314931607545,-0.0030019786599999997,0.0027103895065,0.0067977851665
806.0,0.00308471213005,-0.0037591715169499997,0.0012501164378000001,0.0056391271605
807.0,-0.00228555382715,0.0004878121122,-0.0009780166825,0.0031303428015
808.0,-0.00048754712125,0.00108984485028,0.00063026254997,0.00204423922
809.0,-0.00076750118085,0.00044209636550000006,-0.0009048234111,0.0030407417975
810.0,0.000356417309,-0.00036594300649999984,0.0015265276615,0.0055929744755
811.0,-0.00038889954185000004,-0.0003300675980000001,0.00036293270505,0.001373852461
812.0,-0.00116699659615,0.0011404858442,-0.00107153399075,0.00196770970885
813.0,4.580683379999998e-05,-0.0008483356249,0.00166553737115,0.0026522184065
814.0,-0.00047104298255,0.00016166964399999995,0.0006889149641425,0.0021730049325
815.0,-0.0007985443534499999,0.00067653289685,-0.0003976575744999999,0.0028372717815
816.0,0.0011925491205,-0.00209902799625,0.00048790588929999997,0.0024768364425999997
817.0,-0.0025250003192,0.0025848460580000002,-0.00095733442035,0.00412525178045
818.0,0.0011769713142,-0.0015111656484999999,0.0013641270205,0.002738775165
819.0,-0.000716882945,1.0535178049999989e-05,0.00078410069625,0.0012747550578
820.0,-0.0030261464760000002,0.0018782573505,-0.0007734094684500001,0.004184019759
821.0,0.005584243018,-0.004023379811,0.001970944547,0.007159328013
822.0,0.0007514380232,-0.00120212834615,-0.00034908136720000006,0.0021711108023
823.0,-0.0013889055475000002,-0.00018487558,0.001344272402,0.0055710207775
824.0,-0.0035329576875000003,0.0113417783005,-0.0036181087439999997,0.012500651107
825.0,0.0042685224199999995,0.011048423882,-0.00327002664975,0.02241947098
826.0,-0.022792669495,-0.0028613388749999993,-0.007635572743,0.049371106605
827.0,0.039678360085,0.0066613890285,0.0102166186695,0.045730438605
828.0,-0.0056103974000000015,0.01314809795,0.011578327596,0.035271368005
829.0,-0.0047742166755,-0.012130737748499999,-0.004005199365,0.04507929936
830.0,0.0098436522455,0.007291247575,0.01735396013,0.10288203987
831.0,-0.004565396118,-0.003891331179999999,-0.0377004312815,0.052182189345000005
832.0,-0.0017125064155,-0.0058641735755,0.0006055028227,0.006190030106
833.0,-0.0018961211855,-5.526182799999997e-05,-0.0001106474520000001,0.0047138564455
834.0,-0.00014622398315,-0.00087520561414,0.0007056260452,0.0014463112435000001
835.0,-0.0008064715909500001,-0.0006313958004000001,0.0005411719858,0.0011678114375
836.0,-0.0017668546274999999,0.002890471029,-0.0005197307242,0.0034762197525
837.0,-0.04878766889,-0.01822765781,0.00358294619965,0.060925760815
838.0,0.0027498411075,-0.00060471229,0.00464977953445,0.0094537897325
839.0,-0.0046321335705,-0.01201242195695,-0.007160009022,0.017158667976
840.0,-0.0050845208105,0.00352820933225,-0.0008246536350000003,0.019521057365
841.0,-0.0017015276999,-0.00011642850399999974,-0.00047196028800000004,0.006007961861
842.0,-0.0100848045255,-0.00018913193649999945,1.1245990000000386e-05,0.01876797115
843.0,0.009503025641,-0.0074869862344000004,-0.0003160671869999994,0.021453323825000002
844.0,-0.0027364864855,0.0103917658995,0.0006275572120000004,0.013809955460500001
845.0,-0.008634448962,-0.009640014633925,-0.0056812384095,0.016554535755000002
846.0,0.0052236510855000005,0.002589391261,0.0087501708,0.0115691123855
847.0,0.00210639551135,-0.004506569481,-0.0033940953445500003,0.013641505210500001
848.0,-0.0015535593518,0.00258316653,-0.0017149264825000003,0.021267165585
849.0,-0.0068933928485,-0.0080190680395,-0.006634652853,0.0125921800945
850.0,0.0045403504865,0.0007349586860500001,0.0036022031645000004,0.005963417148
851.0,0.0188185378699,0.023599263611,0.023255647959000002,0.03848881262499999
852.0,0.0116587379235,-0.015049017583500001,0.0015015362864999999,0.030550670954999998
853.0,0.0010999065262000001,-0.010061941578699999,-0.00348968576835,0.010850447515
854.0,-0.00097296700115,-0.0009493171308,-0.0012601220880499998,0.0019982058824999996
855.0,-0.004187965245,0.007659070509,-0.001326383659,0.008829479462
856.0,0.0017677025285,-0.002976117192,0.0011738506239000002,0.0039933194775
857.0,-0.00042082111180000007,0.00057469382585,0.0001792421567,0.00194579107
858.0,-0.00657651213,0.006299490077,-0.0029804276899999997,0.0096809857565
859.0,0.0077759934690000004,-0.0030051795423000002,0.0028885641505,0.0089908746345
860.0,0.0001660341344999999,-0.0018118196053,-0.0003144021244999999,0.004251660028
861.0,-0.0008600550938,0.0018683430739999999,-0.0007335333462999999,0.003645623404
862.0,0.0005833385695,-0.002029939830615,0.00073054301365,0.0038653991355000004
863.0,0.0028979006225000005,-0.00013833504649999988,0.0020313086045000003,0.0114831510495
864.0,-0.00375854567045,0.00225200473,-0.00047331780150000006,0.0067220257825
865.0,0.00024978797100000004,-0.0015245675335,-0.00057680523854,0.00236212668
866.0,-9.75459735e-05,0.00044319268525000005,-0.00014840113400000005,0.0030241613035000003
867.0,-0.0007779881789500001,8.73197099999991e-06,0.00045907001970000005,0.003233465185
868.0,0.000450413699,-0.000392594443,0.0001992218314999999,0.0034980920104999997
869.0,-0.0013997095029999998,0.0005113742564999999,-0.0006581456704999999,0.0044036359475
870.0,-0.00011411405999999999,-0.00011900323900000003,0.0018255894670000002,0.0037751018555
871.0,-0.005138132326,0.006684511803500001,-0.0027296989824999998,0.011485110686
872.0,-0.0010251831375499999,0.00017611430615,0.00020749784730000003,0.0019644337555
873.0,0.00101513124075,-0.00096915647675,0.001241315081515,0.00208423316565
874.0,0.0004007108695000001,0.00012582711949999997,0.0002303188701,0.003403941687
875.0,-0.0015414950835,0.00035890233563499996,-0.00042432095450000004,0.002207815323
876.0,0.0008545668075,0.0001291348759999999,0.0009604051394500001,0.0035869794109999998
877.0,4.66838200000009e-06,-0.0007148934690000002,-0.00073108715845,0.0044929753345
878.0,-0.0005300265974999998,-4.005809000000001e-05,0.00058647410775,0.003578174517
879.0,0.0009001305384,-0.0007661455857,0.00014803208884,0.0016931395379499998
880.0,-0.0021602995375,0.0015131328504,-0.0017313484965,0.0039631181485
881.0,0.00012584627349999998,0.002120895729,0.001925997115,0.00440953124
882.0,0.004016188667,-0.0062044237664999995,0.00034760598799999997,0.007757573039
883.0,-0.0030230709725,0.00390797030125,-0.0014672898865,0.006723595171500001
884.0,0.0021363627552,-0.001239290452,0.0016067720338000001,0.0035543072929999997
885.0,-0.00035672537143,-0.00016421652812,0.00011111846235000003,0.0008723824100499999
886.0,-0.0022913341925549996,0.00147139112115,-0.0005272210285000001,0.0044485997205
887.0,0.0005552463445999999,0.00033886395139999997,0.0007529685579,0.0018810060915
888.0,-0.000631696619795,-0.0002157049477,0.00010573626924999997,0.0009251114896
889.0,-0.002477764179,0.001889891274,-0.002662186491,0.004098565758
890.0,0.0006650138336,-0.00017777397114999998,0.0016204036994989998,0.0022086007535
891.0,0.00024804019155,-0.0006694289120000001,0.000284262026605,0.00204149428
892.0,-0.002646358079,0.00251874186145,-0.0014840673471499999,0.0044228265935
893.0,0.0019266503594,-0.0032460384307,0.0014513105940000002,0.0056179761565
894.0,-1.2015755000000005e-05,0.0018845526592,1.8491135000000148e-05,0.005882697516
895.0,-0.00247041472515,0.0008217172960000001,-0.0008790902151,0.0042524162104999996
896.0,0.0013443120896999999,-0.00060873958715,0.0014742779973,0.0027865228455000004
897.0,-0.000221956690185,-0.00042774855849999987,-0.0006130958944500001,0.0025520582320000002
898.0,0.00163720001005,-0.00021882125364999994,0.00139729220495,0.0028802599100000003
899.0,-0.0005316251874,0.0003475115942000001,0.0003679157389,0.001557867983
900.0,-0.0023876084220000003,0.0009576931191499999,-0.0017192238849500002,0.0035073477165
901.0,0.0016025350952,-0.002321453377,0.00130184684224,0.0036584948830000004
902.0,0.0032919502095,-0.004817812998,0.0011755420967,0.005997690910000001
903.0,-0.0005718349004999999,0.0019084438130000001,0.00077614289235,0.006689353186999999
904.0,-0.0004616112165,-4.729482245e-05,0.0005574397848,0.0012834518252
905.0,-0.001915816149,0.00201741726535,-0.0012562495230499999,0.004470991525
906.0,-0.00049556621935,-0.00036323245349999993,-0.00014273395221,0.0036299848815
907.0,-0.00039183530345,-0.00020235293685000002,-0.0001287252828,0.001182614433
908.0,-0.001002607413,-0.0011528710690000001,-0.00039289816620000003,0.005225297247999999
909.0,0.000412801292,-8.742192650000003e-06,0.0003898886629,0.0024618389685
910.0,-0.0044386291435,0.0036491445405,-0.0014862172419,0.006072112084999999
911.0,0.0014322447484999999,-0.0010598030203500001,0.0024910019265,0.003139522847
912.0,0.0004282027405,-0.00032990765945,0.0007407683581,0.0033690872035000005
913.0,-0.00120488619275,0.0025378301735,0.00010514174595000001,0.0029247908055
914.0,0.00036501451212000004,-0.00031741965085,0.0008101536450499999,0.0016732375035
915.0,-0.000670458097,1.997075600000003e-05,-0.00027874269555,0.0032343681845
916.0,-0.0021746382618,0.0015574367737449999,0.0001932931065000001,0.0037574020514999995
917.0,0.00087389789145,-0.0011942627718999998,9.958964759999999e-05,0.0015827732845
918.0,-0.00125936734,0.0014386600314,-0.0004554760565,0.004505689635
919.0,0.00039745853345,-0.00045753770414999997,0.0008231101918499999,0.0020992436275
920.0,-0.00029600059650000004,-0.0010687306535,-0.00026721132404999994,0.006080229744
921.0,-0.0008951437010000001,0.000764314608,-0.0009246321471,0.004485215685
922.0,0.001447749011635,-0.001292814092085,0.0016924301943000001,0.00263044553675
923.0,0.00049167820565,-0.001178812657795,0.0005829782705,0.00184505205
924.0,-0.003924387251,0.004404769544,-0.003230501834,0.006725990792
925.0,0.0003183048,-0.00116983880105,0.001320050343,0.002163074084
926.0,0.0006558153886,-0.0012894955821,0.00039584923640000004,0.0021601927218
927.0,-0.0031040344847,-0.00092519759335,-0.0029518843105,0.0047643039745
928.0,0.0013395840868499998,0.00095860944625,0.0016689970364999998,0.0025382789675
929.0,0.00011224028950000003,0.00138219448905,0.00041537104000000005,0.0036720337385
930.0,-0.0006594446207,0.0013818476455,-0.0005803296028000001,0.0034254463494999996
931.0,-0.00098138460315,0.00022224469949999994,-9.543508950000013e-05,0.0031026275455
932.0,0.00146073808045,-0.0039185869655,8.169401380000001e-05,0.0042262279375
933.0,-0.0018064428128,0.0009488660164000001,-0.0010892464384,0.002452508835
934.0,0.00075890113785,0.00043758655249999997,0.001937927961,0.0038424333565
935.0,0.00032900109895,-0.00153420816245,-0.0003791666564,0.0027424642025
936.0,-0.002200457359,0.0010263389273,-0.0009366913273999999,0.00273719093
937.0,0.001073774240405,-0.00134008412385,0.0010750025131,0.00213909366025
938.0,-0.00026719194298000003,-0.0005332030695,-0.00067860554365,0.001466390282
939.0,-0.0019666358405,0.0015732044302000001,-0.00067500249,0.0032110275880000002
940.0,0.00108732543335,-0.0015343893434,0.0010018285268,0.0022167574981000002
941.0,-0.0014525449138499999,0.0005213650328,-0.00143390211595,0.0024611190989
942.0,-0.000335963938255,-0.00012755801095000002,0.00085790061595,0.0012943092034999998
943.0,-0.0005066192835,0.00032820477249999986,8.480637815000007e-05,0.003938797537
944.0,-0.0026059943665,0.0015880518579999999,-0.0006771402305,0.004426263364
945.0,-0.00111981243915,-0.0005582530025000001,-0.0011088741889999998,0.0033027585755000003
946.0,-0.00750159559,0.01580080626,-0.0057318086915,0.01880104095
947.0,0.0087515095005,-0.0096189591675,0.0011813938515,0.0188105181495
948.0,-0.0034294891415,0.0031632495515,0.0004968253243,0.00509629104
949.0,0.002446251369,-0.005542218635,0.001986564057,0.00751982466
950.0,-0.0074186826996999996,0.006692669350500001,-0.0020802633724999998,0.013904970052
951.0,-0.0004440966685000003,0.0014135981415,0.0016049521982,0.01052497786
952.0,0.0068914631940000005,-0.0100786477335,0.0008121466424999997,0.013145407014999999
953.0,-0.0011678572025,0.0025577217580000002,0.0006108674775,0.004459010534
954.0,0.0061449568705,-0.0055350085375,0.0013831883374999998,0.00945986044
955.0,0.00015095504449999997,-0.0024748438984999997,-0.00010636920739999999,0.0109818823785
956.0,-0.0009468856800000001,-0.0034661908695,-0.0020376815730000003,0.0047665291625
957.0,-0.005793705279,0.00673644981165,0.000936981645,0.010037538256000001
958.0,0.006253665103,-0.006506410473,0.0009306778335,0.009072368252
959.0,0.0024040602125499997,-0.0015553089529999997,0.0027759034954999997,0.0051217220695
960.0,0.00029175870300000004,-0.0005212649589,-8.746173354999998e-05,0.001686373601
961.0,-0.0022225206119,0.001223788583,-0.00130907447285,0.0049867468215
962.0,-0.0039227136380000005,0.004666282858,0.0005826210084999999,0.0123059632205
963.0,0.01332003751985,-0.0166102137515,0.0023651593584,0.021901890128
964.0,0.007299304166,-0.00613795235,0.0016646188816000001,0.0098967154075
965.0,-0.0119648568198,0.0088839216785,-0.002094372752,0.017419865952000003
966.0,0.0093416123995,-0.0085580213585,0.0047799782935,0.0135930399075
967.0,-0.003918858791000001,0.0023490484555,-0.0014993970387,0.00482066965
968.0,-0.007221948660499999,0.006776421002,-0.002586368164,0.019676233463
969.0,-0.001347978223,0.0035480470310000002,0.0016769578065,0.013484883085
970.0,0.012792912997,-0.015528247347,0.003215355282,0.020518692065
971.0,-0.0121022559938,0.0119665225335,-0.0041639798005,0.0181695081395
972.0,-0.039911416905,0.041117545545,-0.0012818527264,0.05735386588
973.0,0.014555675055,-0.012005844685,0.003069677194,0.022933054757
974.0,0.04120981673,-0.047741626575,0.005401205955,0.06344472436000001
975.0,0.00026409436500000015,-0.0007114316319999999,-0.001497416147,0.014408259205
976.0,-0.0034578754975,0.0029499191465,-0.0008722867625,0.004799397067
977.0,-0.00072002025145,0.0006770460304999999,0.0005223134455499999,0.0028684719074999997
978.0,-0.0012982071755,-0.00021509356525,-0.0008745777772999999,0.0019402242605
979.0,0.00096410055465,-0.0003377733633,0.0017818957213000001,0.002900402525
980.0,-3.800615550000007e-06,-5.7861516999999866e-05,-2.184661225e-05,0.002269223773
981.0,-0.0022345604172000003,0.0007323236216,-0.00145534775,0.003387503112
982.0,0.0015530713111,-0.0016946651045,0.00113211162505,0.0026247354675
983.0,-0.00026559048818,-0.0002542269760000001,-0.00014104122325000004,0.00195737979
984.0,-0.0018240465148000001,0.001226494403,-0.0016399071282999999,0.0034358308265
985.0,0.0013635092685,-0.00099658072755,0.0015795591159999999,0.0027790059095
986.0,-0.00076853247865,2.2854134e-05,-0.0010969010856,0.0026195099175
987.0,-0.0021971217885,0.0021978537106,-0.0007117755585500001,0.0037271717615
988.0,-0.008203789377,0.009364132734,-0.0009604817816,0.012617658864999999
989.0,0.016089819965000002,-0.017340562854999998,0.005646678707999999,0.02475360846
990.0,0.002161636693,-0.0034906127392000004,0.0013022957832499998,0.005930817241
991.0,-0.00255741457005,0.0022011003745,-0.0012297714803,0.005134845514500001
992.0,-0.00277154196,0.003620770139,-0.001960247251,0.004963264099
993.0,-0.0005111986449999998,-9.957855350000008e-05,0.0019312731683500002,0.005906607266
994.0,-0.0015855852365000002,-7.858922514999999e-05,-0.00030502064274999996,0.0030032033659999997
995.0,0.005621451685999999,-0.006241142065,0.0029772161470000003,0.0090489072995
996.0,-0.0011504298834999998,0.0010322410335,0.00045234335050000013,0.0074081594995
997.0,0.0012069424345,7.44830550000004e-06,0.0008336854973500001,0.003795676727
998.0,-0.00042501408350000035,-0.00158703623235,-0.0012219256250000001,0.006908267156
999.0,-0.001020107448,0.0018136242564999999,0.0009490013469500001,0.0062584642575000005
1000.0,-0.006664224347,0.003991262745,-0.0023493131214999997,0.012667466305
1001.0,0.0042901318145,-0.0037547801625000005,0.0027182315446500002,0.009512896476
1002.0,-4.713249381500001e-05,0.000241511928,0.0021107236250000002,0.002885542278
1003.0,-0.004285252112,0.0018177416394999997,-0.0033628161739999995,0.0066594976605000005
1004.0,7.80855543e-05,0.0010575080214,0.0023846432793,0.00307686645145
1005.0,0.0050016362085000005,-0.0039743732102499995,0.0016720506865,0.0069836952785
1006.0,0.00068405096185,-0.0013107675590000002,0.001089482687,0.0042934603945
1007.0,0.0050130550194999995,-0.0065173540495,0.0006966573796950001,0.008272610340999999
1008.0,0.0005887748205000002,-0.00070082118794,-0.001213859044,0.00677176157
1009.0,-0.0012755750897000002,-0.000814516629205,0.0017231048114999998,0.00243248755605
1010.0,-0.0022661071269999998,0.0008400245435,-0.0009637335385,0.0068853706889999994
1011.0,-0.0063673490383,0.005581385667999999,-0.00179995787795,0.008973193663
1012.0,0.0019391914211999998,-0.0015230397877,0.00221559821566,0.0045035309385
1013.0,0.0008905871279500001,-8.547108399999993e-05,0.0005449483538499999,0.002314397016
1014.0,-0.00014465044975,-0.0006887691173,0.00021088434450000008,0.0037219064505
1015.0,0.0010055841389,-0.0004048911437,0.0022013981975,0.0024722896365
1016.0,-0.0008331725998000001,0.0011228398184000002,-0.0016403338374999998,0.003107129696
1017.0,0.00017582875799999984,-0.00192249949245,0.00146402212131,0.003973004374
1018.0,-0.017242922138,0.021563738768999998,-0.0085267007675,0.039380068989999996
1019.0,-0.110749021945,0.10396373186499999,-0.04261560905,0.15815516496999998
1020.0,0.117678476115,-0.023065390396000002,-0.075895219805,0.20009959741
1021.0,-0.10590318380000001,-0.042633365935,0.0470528387045,0.28119567970000003
1022.0,0.035045928049999994,0.02993105308,0.040648611305,0.20320173875
1023.0,0.20498837117500002,-0.20907257088499998,0.084196534825,0.33200950164000004
1024.0,-0.1695078709,0.1482757606,-0.109780841805,0.25260094450000004
1025.0,0.034584782435,-0.023310604861999998,0.061980573395,0.076769622825
1026.0,-0.001894389005,-0.0260051931,-0.001336309399,0.02610832244
1027.0,0.00319467148695,0.0017350418387999998,0.0058839798713,0.0069829946923000005
1028.0,0.0007202571014500001,0.0035305172714999995,0.003318788722,0.009960288164
1029.0,-0.000489137644455,-0.0024859011081,-0.0008028556328,0.0028515087624999998
1030.0,-0.004556824426,-0.0054088248075000005,-0.005669335861,0.0154559324045
1031.0,0.003961807514,-0.003333159720000001,0.004581004816499999,0.017011957195
1032.0,0.0011711544405000002,0.0002180970749999997,0.0038933007155,0.016253381674999998
1033.0,-0.0036031405724,0.011820827476,-0.0022563234315,0.016229784465
1034.0,-0.0094446722725,0.0323743723575,-0.005141219880000001,0.0379702581565
1035.0,0.138430116845,-0.141859194661,-0.0166022983165,0.20824996387
1036.0,0.14662643009999998,0.4660531132,-0.03929255246999999,0.51909716415
1037.0,0.33157919469999997,0.06994782235,0.22548407855000002,0.4724005068
1038.0,-0.20001189104,-0.46213881365500004,0.16655426679000002,0.54439450155
1039.0,-0.0094796587965,0.190028157945,0.16555676827000002,0.2590580455
1040.0,0.0033419067870000003,0.029415298580000002,0.009281294599999998,0.068806250505
1041.0,-0.6735651134,-0.225750106935,-0.5962107837499999,0.9559407492499999
1042.0,0.23463068803,0.28528673260000004,0.187797754805,0.49683373340000003
1043.0,-0.058011595250000006,-0.140305055225,-0.03654002880000001,0.40184328550000004
1044.0,-0.023811210463,0.008664515995000002,-0.02686094215,0.04808066187
1045.0,-0.02109030283,0.0014810909109999998,0.0013726436710000001,0.034019893225
1046.0,2.989476550000012e-05,0.00017376311200000016,-0.000703715475,0.009120954335
1047.0,0.0030931459384999998,-0.0044727254495,0.0012787767575999998,0.0086589697485
1048.0,-0.0045737571235,0.005044301763,0.0054430013681,0.009673237951999999
1049.0,-0.004109320495,0.0039748318135,-0.001569204298,0.008137989642
1050.0,0.078239105835,-0.0832323543,-0.00045202342000000024,0.11538018532
1051.0,0.09136956235499999,-0.038997351835,0.06803178624,0.12753003344
1052.0,0.007700201756000001,-0.015028360565,0.00421363404635,0.020161823779999997
1053.0,0.0039493025845,-0.00038276765,-0.002341335466,0.015005362835000001
1054.0,0.0025182991429999997,-0.0025467419,0.003600915878,0.0094725451915
1055.0,0.003760960601,0.0005529801289999999,0.007289222848,0.0099063292285
1056.0,0.0017181953229999996,-0.010091927766,-0.0025567343349999997,0.015947959055000002
1057.0,-0.000640698072,-0.0020396568305,-0.0017456368189999998,0.009700759477
1058.0,0.00021303435250000008,-0.001630874755,0.0019956991205000003,0.0065670518849999995
1059.0,0.0012466157720499998,-0.0022530300811399997,0.00188272861975,0.00350697289195
1060.0,-0.0003910814503,-0.002334281368,-0.001938752428,0.003059505709
1061.0,-0.0007675641866499999,0.00254150001365,0.0037324233801,0.0049749641135
1062.0,-0.0013480884543,0.0015403511351499998,-0.0024326418836,0.0039610518810000005
1063.0,0.0028861340125,-0.0055251647469,0.0016937488879,0.0076922711105
1064.0,-0.001236676992,0.0066018475520000005,-7.010902299999996e-05,0.008507079051
1065.0,0.0002749384995,-0.00377818659265,0.0014686770534999998,0.00587193514
1066.0,0.0015547419736500001,-0.00165894972143,0.0025747428230000003,0.0035793672725
1067.0,0.008928019914,-0.0026064113090000004,0.0053600758105,0.010802747561
1068.0,-0.0090394114525,-0.0094641155375,-0.007136721416999999,0.01596107509
1069.0,0.004230739051,-0.0030736598738,0.00224998728,0.0062865869755000005
1070.0,0.00030251474144999996,-0.00135494592625,-0.00146914435455,0.002504194342
1071.0,-0.0014172221175,0.0013699318916,0.0024257305399999997,0.008352671193999999
1072.0,0.0004455203569999999,-0.0002853684079999999,0.0006047851104,0.0058540764845
1073.0,-0.00060516311625,-0.0038402717599999997,-0.002289173789,0.006366091616
1074.0,0.002250035654,-0.00088408424795,0.00013007452799999983,0.005560456868
1075.0,-0.0010979650175000002,0.00165764738435,-1.7768940999999963e-05,0.004795734987
1076.0,0.00043787011265,-0.0015018021573499998,0.002309949558,0.0030638728775
1077.0,-0.001340000849,-0.00010527023149999992,-0.0009516481055,0.0055783099225
1078.0,-0.0005099810184999998,0.00046899864179,0.0005579542394999997,0.005389301653
1079.0,0.0037419160935,0.00013932205200000006,0.0017090438770000001,0.0051109206275
1080.0,-0.009227977947000001,0.006491990866500001,-0.0034240646486249997,0.01429176178
1081.0,-0.0006700957275999999,-0.004590291680000001,0.0022987832907,0.0078848383805
1082.0,-0.00030584710505,-0.0026778853397,-0.0007535999983050001,0.003318260077
1083.0,0.004537099089,-0.0010520863970000002,0.004105635820499999,0.0068518038155
1084.0,-0.0024609285151999997,-0.0003484182915000001,0.002324649281,0.009917743409
1085.0,-0.001309590033,0.00039664044049999994,-0.0023136606005,0.0032474772735
1086.0,0.0024541965345000003,0.0009325623599,0.0022900731495,0.003961816871
1087.0,-0.0032179029679,-0.0061220316195,-0.00036723370450000023,0.012013639655
1088.0,-0.0019226508219999999,0.004917824132,-0.009887099792350001,0.01832224905
1089.0,0.0008828179024500001,0.0064509261160000005,0.0034401048765000004,0.0081086932895
1090.0,0.002481736065,-0.0031983201855,0.0004937989208,0.004086794
1091.0,-0.0015882766105,-2.3010480150000012e-05,-0.0031741765895,0.0035742276085
1092.0,0.00090738589775,-5.9386364499999875e-05,0.0035029938776999997,0.004818825311000001
1093.0,-0.00113968129539,0.0041621769895,0.002935914204,0.0052852359249999994
1094.0,0.0002469015719,-0.00465911927,-0.001689954122,0.004962287546
1095.0,0.0032509858515,-0.002078771437,0.0021634940288500003,0.006326732638499999
1096.0,0.0002484459923,-0.000580135348,0.00020873334249999994,0.005091392952
1097.0,-0.008891175771199999,0.0039248529867,-0.007413082218,0.0129559868475
1098.0,0.0209613929935,0.01978610526,0.009074160958,0.034413920114999996
1099.0,0.009134798776,0.017960554089000002,-0.004642938129499999,0.02454892804
1100.0,0.01661445938755,-0.0008337941799999998,-0.0020041570128,0.039939560560000004
1101.0,0.00378560612895,-0.007093815998,0.0055550168441,0.010413600571499999
1102.0,0.00041094930684999997,-0.002923099253,0.00091939634545,0.003231889961
1103.0,0.002021540002,-0.000955279495,0.0025876265965,0.01162066329
1104.0,0.001151397477455,-0.0016472008990000002,0.001993054571,0.003776462052
1105.0,-0.0016957943155,-0.0017502276916999998,-0.0016882157519999999,0.0032647634304999998
1106.0,0.00039720939999999985,-0.0008455720974500001,0.001177797668,0.005400002492999999
1107.0,-0.0008099385715000001,-0.00112777724555,-1.981604000000003e-05,0.0037806332165
1108.0,-0.00935309480365,-0.01928780020865,-0.0061397788621,0.0232550043485
1109.0,-0.0004980686550000004,0.00562710583,0.0001331308875000001,0.020812320680000003
1110.0,0.0083961120465,0.007821020828,0.004770480482,0.015416957803500001
1111.0,0.0039723261955,-0.001339606547135,0.003473145651,0.0055538096365
1112.0,0.0012789673934,-0.0008862446892500001,0.00047332935240000006,0.0024081997444499997
1113.0,0.000452967824,-0.00013075135300000002,0.0006694762359000001,0.0018608931635000002
1114.0,8.23270164e-05,0.00013669749595,0.00022513702385000003,0.0014379938385000002
1115.0,-0.001999796932,0.00083639385285,-0.0025222860215,0.0036815132045000002
1116.0,0.0024562646618,0.00053575880685,0.0033596634999999994,0.006158805763
1117.0,0.0012717308868000002,0.0001445939689,0.0019110380674999998,0.0023251231165
1118.0,-0.00148768877789,0.0034400246905,-0.0024842185300000003,0.0061572077915
1119.0,-0.00044319715910000004,-0.00084628439695,0.0004796842878,0.00117668989395
1120.0,-0.0011462445905,-0.0008892554322499999,-0.0010792823795000002,0.004743079439
1121.0,0.0016705490550000001,-0.000569826785,0.0027749688535,0.003304896419
1122.0,-9.252406499999998e-05,-0.0007030234168,0.0003854757209,0.0011787835414999999
1123.0,-0.000452989783,0.00019852352655,-0.000720508457,0.00350256704
1124.0,0.00047928558949999995,-0.0008954378174,0.001987231713,0.0024807822755
1125.0,0.00026590631382,-0.0006516415547,0.00115065048225,0.0020776852685
1126.0,0.00034366649414999996,-1.2669983949999966e-05,0.00105808347525,0.001460811465
1127.0,-1.8148420500000003e-05,-0.0002880732942,0.0005703715085499999,0.00102924753565
1128.0,-0.0008856725225999998,0.0005198238548,-0.0009757027649999999,0.0034197606955000005
1129.0,0.00129692293,-0.001502550623,0.002170600086,0.002941287506
1130.0,0.00048674927000000003,-0.000102538494485,0.0017533311195,0.001833513572
1131.0,-0.000773756758,-4.518454594999998e-05,-0.0008876786779999999,0.003581475506
1132.0,0.0003666652700000001,-0.0006454271028500001,0.001363932945,0.0035699418745000003
1133.0,0.000269495211,-0.0008076229557000001,0.00118995083425,0.001605417103
1134.0,0.0006520960197,0.00792800085545,0.002244872209,0.009167662936
1135.0,-0.054767530489999994,-0.0347235762005,-0.0011058000100000014,0.08402531193
1136.0,-0.0018073925107,0.015043865649999998,-0.0014869310625,0.023290054414
1137.0,-0.0006292334678,0.0040823229605,-0.002589797423,0.006312559840999999
1138.0,0.00028940751999999997,-0.0014495629995,0.00120376265735,0.0031056303925000002
1139.0,0.0012134316959999999,-5.499375799999999e-05,0.0025252576645,0.002930924312
1140.0,0.0036090535215000004,-0.004754241828,0.003917609684,0.007302917756500001
1141.0,-0.0020531223465,0.0005934980524000001,-0.0021628055102499997,0.0037398887455
1142.0,0.00056462439105,-0.0011052228281249999,0.001506831295,0.002167612662
1143.0,-0.004482983392199999,-0.001376897584,-0.005143894835950001,0.0077283698435000004
1144.0,-0.023361315525000002,0.013045535047,-0.014634611240000001,0.03088113623
1145.0,0.0111670641755,-0.007857861076999999,0.0083288386845,0.016054025845
1146.0,0.00042015771799999995,0.002074095071,0.0011766936320000002,0.0044270625795
1147.0,0.0010649047188,-0.0012024009703,0.0003016202051,0.0021622580515
1148.0,0.00022888568680000002,-0.0011914573455,0.00012025332270000004,0.0016297895515000002
1149.0,-0.001794577467,0.00044887771775849997,-0.0022629922514999998,0.0029883591885
1150.0,0.0010094594043,-0.0005789050986,0.0015434816517000001,0.002169343619
1151.0,-0.00027528015995,-0.00062418961422,2.4552386400000055e-05,0.0013669928360000002
1152.0,-0.00261087031965,0.0016113160822,-0.0017201491245,0.0038830900165
1153.0,0.002048492443,-0.0020468170359,0.0019989134787,0.004346110742
1154.0,0.00199238217785,-0.0027822857065,0.0015019718796,0.0045077374845
1155.0,0.022014699095,0.015208455396499999,-0.00293889396,0.0360482528
1156.0,-0.0053562049605,0.034960081454,0.100998388205,0.10711415553999999
1157.0,0.063386821785,-0.091339779915,-0.18933264815,0.2390973713
1158.0,-0.09041954877,0.042153522579,-0.0862688984735,0.198612548
1159.0,-0.040114376210000004,0.057285584045000004,-0.065351876365,0.098773013005
1160.0,-0.054419709355,-0.0324327026465,0.02705194867,0.079396112435
1161.0,0.0092197223018,-0.014548515585,0.002159590584,0.019122647095
1162.0,0.0022768224700000003,0.00930289292,-0.0017849951985,0.058030934945
1163.0,0.07798526286,0.05482097638,0.04943212519,0.1073805181
1164.0,-0.036056986177000004,-0.011386912279,-0.053998693727999994,0.079022756995
1165.0,0.0076220138555,-0.0030967380924999998,0.016134894785,0.023294391050000002
1166.0,0.028018505383265,-0.00337466380115,0.0442486110925,0.0539955930195
1167.0,-0.026252363209,-0.0032012683872,-0.0557208652275,0.0617739855585
1168.0,0.02619389644,-0.015458742634249999,0.0565456458645,0.0643337100665
1169.0,0.002704432314,-0.011683106128500001,0.0026954149705,0.013263443058999999
1170.0,-0.0013460567720499999,0.0003040102644999999,0.00010800688700000004,0.0030898179315
1171.0,0.0002151757439999999,-0.0005105472315,0.000227137996,0.002804402112
1172.0,-0.0019628308514,0.0016690557835000001,-0.004150611367,0.00519682872
1173.0,-0.0025285951335,-0.0015825172306,-0.00594041381725,0.0077874231655
1174.0,-0.006884525534999998,0.023680988485,-0.014325184934999999,0.118795431235
1175.0,0.019634359919999997,-0.012723390775000001,0.032644615275000004,0.08284525648999999
1176.0,-0.01957323838,0.008114021374999999,-0.020580898889999998,0.117416870275
1177.0,-0.021070348604999997,-0.011040381714999999,-0.009887853340000002,0.116424847995
1178.0,0.0321211388,-0.0021181574649999993,0.03471952020500001,0.08882703672
1179.0,-0.0094171813,-0.0045234968545,-0.0026014428975,0.0108904603665
1180.0,0.0008911120855,0.0007327637889,-0.004141494762,0.0058343857665
1181.0,-0.002214984596,0.0009529855917,-0.0013710424789999999,0.004188743807
1182.0,0.00031770868700000017,-0.003623613906,0.00076720087115,0.010045514392
1183.0,-5.805826099999998e-05,-0.0011576955679999997,0.00238540389835,0.0065130723915
1184.0,-0.0019400348459999999,0.0025622806691000003,-0.0029982413705,0.006298024625999999
1185.0,-0.0038894042029999996,-0.002257486207,-0.0058873115294999995,0.0103957225115
1186.0,-0.0200270546425,0.018812182265,-0.0467626221435,0.059926396675
1187.0,-0.0023598009715,-0.03704618136,0.0067616638100000005,0.039645810945
1188.0,-0.015844447810000002,0.015957862585,-0.010622430417499999,0.03482287818
1189.0,0.012055640614999998,-0.008936306065000002,0.0015606688744999996,0.04079165069
1190.0,-0.005950391078,0.010615478749500001,0.0024300590980000005,0.014922870734
1191.0,0.008763900110000002,0.00010555524499999969,0.004348643669999999,0.040536532545000004
1192.0,-0.015529194596,0.012309440034999999,-0.01611440272,0.038578399205
1193.0,0.011806669740000001,-0.0187711988855,0.0019435371288499999,0.02506619484
1194.0,-0.02413850608,0.025600045624999998,-0.006244961205000001,0.04016972694
1195.0,0.0178416220588,-0.023138692495,0.0044254750135,0.032245388895
1196.0,-0.00251975871,0.013657551059499999,-0.0012327795644999995,0.02111617286
1197.0,0.01548032987,-0.04415958785,0.009851913132,0.04782018407
1198.0,-0.0130601816,0.016350621735,-0.0023572083935,0.021164456095
1199.0,0.0008301041363999999,-0.0048703724555,0.004961134342,0.0074675930585
1200.0,0.02559371244,-0.0055451375050000005,0.065752112825,0.07423919201000001
1201.0,0.026206826425999998,0.017343589832,0.034550759446,0.0482931642845
1202.0,-0.0004979446509999997,-0.02757325161,0.011625877666,0.03202280756
1203.0,-0.0054785271229999995,-0.00771177528785,0.005204747018,0.011144826379500001
1204.0,7.10591409e-05,-0.003221730527,0.0026031248655999997,0.004294507455999999
1205.0,-0.00315511945,0.0018144223321,-0.0042723024744,0.0060592052125
1206.0,-0.00026153690665,0.00028327864689999997,0.000991322094,0.0039666063575
1207.0,-0.0011199537284999998,0.00011940158025,0.0019415602009999998,0.0025974424985
1208.0,0.0008194521845499999,0.0010158194540500001,-0.0054658578595,0.006303407324499999
1209.0,-0.00070752095725,-0.0008220963713,0.003594760919,0.0037839441065
1210.0,0.0021523017025,-0.0035127585895000004,0.0054237797535,0.007013843552
1211.0,-0.0014438828812999998,0.0042440242515,-0.00321574145515,0.006888354491
1212.0,-0.0008578268929,0.00032200591000000004,0.0006611195950000001,0.006925536027000001
1213.0,-0.002560659408,0.0039388830145,-0.005335049909499999,0.007290693565
1214.0,0.0005689524614,-0.003804950804,-0.00043523025500000006,0.004547088677999999
1215.0,0.001541678769,-0.0010650477627,0.002136392783,0.003265073506
1216.0,0.00065883171205,-0.001426777491,0.00019963581900000002,0.0016986434180000002
1217.0,-0.0019492727736,-0.0008962548159999999,0.0016833371445,0.0039123157265
1218.0,-0.0018029086195,0.0017241278935000003,-0.003779444824,0.006470589422499999
1219.0,0.0020718514237,-0.0042128712445,0.0038884265755000005,0.01019689595
1220.0,-0.0018415673743500001,0.0030623060545,-0.00296391410625,0.0055594266525
1221.0,0.0028213125323000004,-0.00481495694495,0.00282163904445,0.00925939118
1222.0,-0.0004417846235000001,0.00244675281905,-0.00409897753865,0.0068199537660000005
1223.0,0.0043922291895,-0.0035699606110000002,0.0048360362195,0.009921424675
1224.0,-0.0018951691155000001,0.00118008519275,0.0004331210904999999,0.0038223262670000003
1225.0,-0.0055121825255,0.0011842775985,-0.00294527736975,0.0077845179104999995
1226.0,-6.521968673e-05,-0.002507725046,-0.0011391810532999998,0.0029246856145
1227.0,-0.00159055700815,-0.0004476291406,0.0019327467475,0.002954944716
1228.0,-0.0008801546484,-0.00120535937805,0.0022358084110000002,0.0034358036660000002
1229.0,0.0011268835011,-0.0007495442265,-0.00379229419155,0.00533481918
1230.0,0.00023241687399999991,-0.00011239047299999982,-0.0053566500945,0.006693843534
1231.0,-0.001613355616,0.005810351919,0.01068885524,0.01227251938
1232.0,0.002053034688,-0.0065846496655,0.0031707429525,0.007641907529
1233.0,-0.00096493954405,-0.0022660274625,0.0008959835915,0.0074108116980000005
1234.0,-0.0029656805815,0.0045594023575,-0.0027110551565,0.0061861067705
1235.0,0.0005093739375,-0.0010437513395,0.0042795691149999995,0.0101456612705
1236.0,-0.0008263576768,-0.0024807273075,-0.00013204776800000012,0.0036027750705
1237.0,0.0006721491385,-0.0013094953904999999,0.0050953903235,0.0089208933235
1238.0,-0.002146828406,0.0019244166209,-0.0061334949045,0.008440429715499999
1239.0,-0.051520086855,0.02214018761,-0.08365676227,0.105987441025
1240.0,0.009856107308,-0.0010884777350000001,-0.009628268204999998,0.030871723905
1241.0,-0.002362990265,0.013028220717,-0.008602634729,0.02910284007
1242.0,-0.010820630258000001,0.002678260525000002,-0.013821912838,0.03729837118
1243.0,0.00833767204,-0.0064086326949999994,0.009170866140000001,0.045900104644999995
1244.0,0.0027771759984999995,-0.0182157666695,-0.0017684014965000001,0.02065296884
1245.0,0.003100531335000002,0.0021104681949999995,0.005597994823,0.04791551988
1246.0,-0.0010722332149999993,-0.006118639300000001,0.00036300601999999984,0.06241547058
1247.0,0.0002506521899999989,0.0026891759499999973,0.0053249837800000005,0.055726790865
1248.0,-0.002469278390000001,-0.0006314025849999995,-0.0033087932127,0.033510334955
1249.0,-0.00254966706,-0.0017080618699999994,-0.006699278615,0.059226721755
1250.0,-0.00818299332,0.01685090362,-0.0002340730950000005,0.025961293425
1251.0,-0.010222255129999998,-0.005985734005,0.0059819728280000005,0.04646400655
1252.0,0.015743476805,-0.011373589415,-0.0071179845439999995,0.039606527605000004
1253.0,-0.0015786759750000007,-0.0012086190849999994,0.0054442047635,0.034968204495
1254.0,0.005613515215,0.0106920282135,0.00153191589,0.028079432515
1255.0,-0.0128579848185,0.0017101429249999998,0.0017674966525000001,0.02526531286
1256.0,-0.011400006170000001,-0.004082091749999999,-0.00034716357050000026,0.044873302605
1257.0,0.020806344814,-0.009519777608000001,-0.0012135635309999998,0.025799222878500002
1258.0,0.002262291770000001,-0.0006804167349999998,0.003839462206,0.040114973605
1259.0,-0.01233579619,0.008733246263,0.0012527460075000005,0.02133046245
1260.0,-0.002509635693,-0.0049167570505,-0.003177079131,0.0067297236605
1261.0,-0.0008244921690499999,-0.0008984094407499999,-0.0007971382995000001,0.002666897836
1262.0,-0.0012931123825,-0.00123197817475,0.00256229835405,0.0032970459565
1263.0,1.5127655199999974e-05,-0.0008629683084000001,0.00074623780915,0.0012538036496
1264.0,-9.386973255e-05,-8.012435430000003e-05,-0.0028884464845000003,0.0031113507260000003
1265.0,-0.0002056847683,-0.001617530388,0.002585491873,0.003056710488
1266.0,-0.00032528487316999997,-0.0008957167966000001,0.00062401345575,0.00114797870985
1267.0,-1.3981400249999987e-05,-0.0005221213408,-0.00039971188365,0.0007322364771
1268.0,-0.00036684761289999996,-0.000177710995,-0.0023137321115,0.002397782434
1269.0,-0.00028463507155,-0.0010869679689,0.0013454056255,0.0018113091595000001
1270.0,-1.561549934999998e-05,-0.0007389190358499999,0.0005753126792,0.0010046135887000001
1271.0,-0.00065173476695,0.0007487258077,-0.0027602507669999997,0.002938993852
1272.0,0.0001401672706,-0.00154053945,0.002028407905,0.0026486221485000003
1273.0,-0.00022572261855,-0.00048816447845,0.00095560189835,0.0017276123163
1274.0,-0.0008679640447500001,0.00130948065375,-0.0031053010410000003,0.0035217515320000005
1275.0,0.00080508984575,-0.002001517007,0.0024619042375,0.0034060044895000002
1276.0,0.001802093078,-0.0028285918055,0.0035111257424999998,0.0050408465265
1277.0,-0.0013866824982000001,0.0023417608898,-0.0035403955624999997,0.004978471345999999
1278.0,0.0008712635014999999,-0.0026837150385,0.002861750962,0.004172459317
1279.0,0.0024086021405,-0.003890683854,0.004050826225,0.006146268761
1280.0,0.0005171861474,-0.00112932694345,-0.00153369376485,0.002458957393
1281.0,-0.00019000570845,-0.00055820577861,0.00012100757242500001,0.00096874640885
1282.0,0.022618007944999997,0.023755044495,0.08521900762000001,0.09391932747500001
1283.0,0.001141226967,-0.018637488051,-0.00042217517499999963,0.022702525135
1284.0,0.006686145349999999,0.0075999432835,-0.007047794449999992,0.15364995135
1285.0,-0.039089033935,0.0085783559427,-0.07436344856299999,0.08627337729
1286.0,0.029060682812500002,-0.0030774347000000002,0.0489338638,0.057336813784999996
1287.0,-0.0010988845434999998,-0.00250068267885,0.0018076002415000005,0.008959749917
1288.0,-0.0019310076616050002,0.0006838892654999998,-0.0083755003545,0.0097325365225
1289.0,-0.00022490557699999993,-0.0016696506895,0.0032639201284999997,0.009285930597
1290.0,0.00109985150965,-0.0025496496145,0.0023780376404999998,0.0036664261260000003
1291.0,-0.002106446869,0.0022600242235,-0.0061318051385,0.0068980207165
1292.0,-0.0051531433115,0.006431434666500001,-0.009827331984999998,0.031018944734999998
1293.0,-0.012722112964999999,0.0076689570855,-0.020354242305,0.09215897741000001
1294.0,0.013140370515,-0.010940114849000001,0.03111771379,0.040042657105
1295.0,-0.0014053783972,-0.0021089341083799997,-0.0016960556570000001,0.0038828719385
1296.0,-0.0012694178194,0.00124053208305,-0.004261258568,0.0046454094395
1297.0,-3.3644870350000016e-05,-0.0003031612485,-0.0003591131365,0.001744345456
1298.0,0.00010322111510000001,-9.328252700000004e-05,-0.000341281914,0.001320137834
1299.0,-0.0005143117981,0.0002442380806,-0.002354686998,0.00242254406
1300.0,0.0002247167605,-0.00066036404828,-0.0004148224390000002,0.0037500306765
1301.0,-0.004384159611,-0.009159942487,-0.02486024609,0.06670025539999999
1302.0,0.02269372551,0.003133138951,0.066135143545,0.07315024792
1303.0,-0.0021147893848499997,0.001892096265,-0.00579730285935,0.008388904228999999
1304.0,-0.00012039725094999999,-0.0024435566285,0.00048618880689999997,0.0039194391865
1305.0,-0.0017095925857,0.0006883889058,-0.002449678418,0.0049624676215
1306.0,0.00106022935625,-0.0018501254165,0.0021453315785,0.0030531082635
1307.0,-3.599468844999999e-05,-0.00026625830695000004,0.0006378082002500001,0.0016504483275
1308.0,-0.03197244557,0.00738102485495,-0.09023307790500001,0.09608958571000001
1309.0,0.007492680543000001,-0.00971770907,0.01723153457,0.021315141340000003
1310.0,-0.0021908132735,0.0016374839414999998,-0.0019961341085,0.0061118778335
1311.0,-0.0003383878057,-0.0003788520984,0.00110941978955,0.0013183290409999999
1312.0,0.00077106902265,-0.0016398737380000001,0.0011259374753,0.002221111947
1313.0,-0.00057201695332,0.0012864142260500002,-0.0034100814295,0.0037701900929999997
1314.0,-0.004234852315029999,-0.009577850470849998,0.0244758615825,0.0266458852075
1315.0,0.052342172435,-0.010438687625000002,0.099908539845,0.122749087615
1316.0,-0.0044817694995,0.0171237356385,-0.0533172242765,0.058970718625
1317.0,-0.0003735088724999999,-0.006095672171999999,0.005437387209999999,0.012692705745000001
1318.0,-0.032038955585,0.0041812726835,-0.07463493264,0.081812448865
1319.0,0.028061872215999997,0.011104396370500001,0.05773536952,0.066700591845
1320.0,0.0026794964200000035,0.0058371414174999995,-0.00697974450000001,0.19689460245
1321.0,-0.038969933075000004,-0.016606085040000003,-0.06467284716999999,0.07785959287
1322.0,0.0020505097650000033,0.007607446958,0.020403945209999996,0.13078236115
1323.0,0.0005227089850000019,-0.01107541315765,-0.0055404156049999945,0.11191479545
1324.0,0.008766169975,-0.00020259834650000058,0.021967042915000002,0.08861978414999999
1325.0,4.0889064999999856e-05,-0.004903302177000001,0.014971367159999999,0.05385630463
1326.0,0.0024298256670000004,0.0048716651655,-0.020152378075,0.038569579675
1327.0,-0.01135862923,-0.0153647205695,-0.008176656625,0.106605752395
1328.0,-0.0016099964200000025,0.004553197714999999,0.0022166057200000006,0.1144113726
1329.0,0.00025844596549999977,-0.012204853263,0.0031891362360000003,0.015159180125000001
1330.0,0.0007398453905000002,-0.0027557326727499997,0.010434202339500001,0.011548250055
1331.0,-0.00019305973900000007,0.0013548824684999998,-0.002240563827,0.007227647329
1332.0,-0.0019091810305,0.00340144706135,-0.005752474175900001,0.0071309158035
1333.0,0.0004128029698,-0.002724015994,0.001591156342,0.003181579471
1334.0,0.0006555295867999999,-0.0016832582873,0.0004970514189000001,0.0024729576963
1335.0,-0.00116986094265,0.0017575087052,-0.0025259602614500004,0.0033065975219500002
1336.0,-0.00036196165045,1.4462889450000006e-05,0.000209357808,0.001978176191
1337.0,0.00031530543905,-0.00085099989105,9.676414214499999e-05,0.0009259582368500001
1338.0,-0.0007107149736499999,0.00120390258275,-0.00256969376375,0.00339831983455
1339.0,-0.0008435542606,0.0004478626534999999,-0.00040320675099999996,0.0036144881344999996
1340.0,0.00048463836805,-0.0007637765934,0.00018001935734,0.0009348997616999999
1341.0,5.057332215e-05,-7.631076399999999e-05,-0.00048725260250000006,0.0025376913765
1342.0,0.00050290665049,-0.0003283917975,0.00045574108299999984,0.00356157807
1343.0,-0.00026516956,-0.0016436363095000002,0.00107426626635,0.0020127516425000004
1344.0,-0.00013366883034,-0.00016141863194999996,-0.0004344897436,0.0010608992544
1345.0,-0.00071996993465,0.00105540207655,-0.00198842733305,0.0024876707315
1346.0,0.0001296343547,-0.0011573417510000001,0.0015429533587,0.002006679555
1347.0,0.0065998480765,0.0028447036302500003,0.007820269211,0.010938339747500001
1348.0,0.0013553597305,0.054423338705,0.031323310025,0.06298079412
1349.0,0.008997509797,-0.013161555294999999,0.026521819655,0.03174540278
1350.0,0.0016017750215,-0.0004446515175000001,-0.004460913069,0.0051353514025
1351.0,0.0014160526484,-0.0026286652805,-0.0029554137335,0.0042677464464999995
1352.0,0.0011674309189,-9.238991150000006e-05,0.0013494762570499998,0.003962366621
1353.0,0.00049350008955,0.00019587507684999997,-0.0011779475860500001,0.001753194975
1354.0,-0.00021452242599999998,0.00212666092745,-0.00305568023,0.004167220764
1355.0,0.0008774881738,0.0005310100899999999,0.001981204161,0.002868346211
1356.0,0.00088479174485,-0.0008255286399999999,-0.00047721941589999996,0.00153047353045
1357.0,-0.0006206040796000001,0.0019141887065,-0.0026526338510000002,0.0047358312845
1358.0,-0.018924273038,-0.0072367846345,-0.0640765001545,0.06824056833
1359.0,0.01084046626,-0.04508115534,0.014439955885,0.054106959525
1360.0,0.030022595406749997,0.050790695645,0.028942520545500002,0.07729572416
1361.0,-0.0057720078095,-0.012088268425,0.0064878671895,0.020747046955
1362.0,-0.0013030628655,0.0029579422565000004,-9.798661050000016e-05,0.0060551517320000005
1363.0,0.00012020806685,0.0001114176105,0.00011547492455,0.0017086385435
1364.0,-0.0017377856304999998,0.0012310009735,-0.004189462126,0.0048892591335
1365.0,0.0003791786502,-0.000965348470035,0.0027771859325,0.0030266981125
1366.0,7.959422155e-05,-4.111510350000001e-05,-0.000214230293175,0.001193248291
1367.0,0.0003447684542,-0.002462465115,-0.0013464317,0.002827627637
1368.0,-0.0012347119422000002,0.00205756694,-0.0034892460829999998,0.0043068221715
1369.0,-9.651215739999998e-05,-0.0007440122825999999,0.00072354715385,0.002539704911
1370.0,-0.0037754443585,-0.0149935227444,-0.00102965977255,0.0167087514345
1371.0,-0.08516196679499999,-0.142612192,0.119053601125,0.23454584335
1372.0,-0.006202888857,-0.052852938135,0.005140807499999997,0.14253490505
1373.0,0.12501309056499998,-0.17225128415,0.09677504879000001,0.2727114026
1374.0,0.032121289235,0.229004174665,0.06857539864500001,0.30751191485
1375.0,-0.054756109600000005,-0.02993750134,-0.17741900555,0.264534858
1376.0,0.016180710299999998,0.040980886424999995,-0.018082237955,0.09466002301000001
1377.0,-0.03245971226,0.11731268118,-0.097451611185,0.18339235775
1378.0,-0.019762641925499997,0.056835298775,-0.052196941545,0.08875659568
1379.0,0.000410178945585,-0.00672736761,0.006862699941,0.009786442927999999
1380.0,0.00100782594675,-0.000727183648735,-0.0014971479845,0.002639914273
1381.0,-0.003358248315455,0.00068893296385,-0.002305928023,0.0044198584635
1382.0,0.00016807556349999987,0.001133699924,-0.00011737170200000003,0.0073928194749999995
1383.0,0.0184701892935,0.004027496984999999,-0.027213108139999997,0.12299082811
1384.0,-0.017322120009,0.005179103825000001,-0.035180332145,0.111124780665
1385.0,0.0224461027525,4.005605999999988e-05,0.077732833255,0.087540363925
1386.0,-0.0050150321875,-0.011452573889,0.001429874735,0.0161439414825
1387.0,-0.003024912409,-0.00781197106,-0.006373092778,0.01887000228
1388.0,-0.0022449748655,0.0060396100735,-0.0050626852734999995,0.011286105073
1389.0,-0.0007804754060000001,-7.395368000000018e-05,-0.0011209085760000002,0.0058931514889999995
1390.0,0.0003705281244,-0.0007206792441,0.0016252024334999999,0.0018167858080000003
1391.0,0.0024405470275,0.0010280770992,0.0007112138698000001,0.0027451851495
1392.0,-0.00082812567835,0.0002281544365,0.000191896186,0.0012284901245
1393.0,-0.00239610320445,-0.00202996124115,-0.0025467961333,0.0050611301765
1394.0,-0.03480707208,0.014193821504999999,-0.093342373595,0.101723890135
1395.0,0.046507423745,-0.0073963825805000005,0.09955077601,0.11051464008
1396.0,0.006869566885000001,-0.00868391611385,0.004175383399999996,0.11723641265000001
1397.0,0.00665573536268,-0.006481366093000001,-0.01184168117,0.035880253235
1398.0,-0.013080279735,-0.001995308415,-0.01576910791,0.02558976685
1399.0,0.004828461854,-0.006900979053,0.0172531012985,0.023466937323499998
1400.0,-0.0060732253165,0.010527413757500001,0.0010525688215000002,0.0193599145635
1401.0,-0.0107716347085,0.0320391934305,-0.0238241813135,0.0436722975845
1402.0,0.01811304156,-0.06806872062,0.05183680421,0.08745563031
1403.0,-0.008523962931,0.0214290667505,-0.0215357095295,0.038375407945
1404.0,0.0085680452795,-0.025677884715,0.026851639805,0.038422717640000006
1405.0,-0.0059830738005,0.025731952279999998,-0.030170736740000002,0.040133690375
1406.0,0.0058977726925,-0.0226041563305,0.020996774558000003,0.03218432738
1407.0,-0.0009917345505,0.014425195510500002,-0.01979417745485,0.0311622263395
1408.0,-0.0011559663274999998,-0.005947296005,0.00855447048,0.035695692035
1409.0,0.0006241981130000003,0.005407350824999999,-0.006278351615,0.046365118425
1410.0,-0.0009322911685,-0.004672578045,0.002440436915,0.05197598405
1411.0,0.0021146842110000004,-0.00543800004,0.004244232749999998,0.043027674035
1412.0,-0.006509574281,0.014591959560499999,-0.017569858589999997,0.05249271262
1413.0,0.006260085949,-0.026331540705000003,0.0287563874,0.039837685555
1414.0,-0.006749753566,0.025953855300000002,-0.032843695525,0.04263385309
1415.0,0.0092656880835,-0.033572340995000005,0.043878944690000005,0.056150909495
1416.0,-0.006880364835,0.03228461884,-0.0364246691815,0.050392947505
1417.0,0.01093082171,-0.026705773614999997,0.0209943409955,0.03751698494
1418.0,-0.003051868955,0.02354180863,-0.017670585813,0.030317300545
1419.0,0.004224543063499999,-0.0120239508995,0.004121270185500001,0.01927633034
1420.0,-0.0029195908445,0.00122255573815,-0.0029446703498,0.004431049461
1421.0,-0.0024379270365,0.001373824805,-0.0018906117434999998,0.010336858445
1422.0,0.000658075829655,-0.0040603684575,0.0021402960702999996,0.0049405887035
1423.0,-0.0013080607148,0.00049345064385,-0.0003099091720000001,0.0032511745185
1424.0,0.0014315093180000001,-0.0011230361458000001,0.0011537292875000002,0.0036914199075
1425.0,-0.01857041751,-0.0114988156565,-0.048357269838000004,0.065593219955
1426.0,-0.028014843465,0.055119022745,-0.018888749674,0.070808779075
1427.0,0.017442684891999998,-0.02380296019,0.065472637975,0.10051973506
1428.0,-0.004260542195,-0.005970060499999999,-0.040179732499999996,0.081743151525
1429.0,0.033360902325000004,-0.036282343119000006,0.0707014896465,0.1092102639
1430.0,0.0005419846194999999,-0.0048384406119999996,0.006257053055,0.0167656690045
1431.0,-0.000582446383,0.0016009606665,-0.005480532483,0.005751006473
1432.0,-0.001594351525,-0.0036537255235000003,0.007923801442,0.009478738423
1433.0,-0.025468724964999998,0.04495862981,-0.067412813005,0.10216903120000001
1434.0,-0.007885676039999998,-0.024466333455000003,-0.028116435500000002,0.16237158575
1435.0,0.033205190085,-0.002230519365,0.06632997538999999,0.07618715823
1436.0,-0.04807570246,-0.01733719859,-0.09574862781,0.1085341022
1437.0,-0.0035445578234500003,0.0003866657374999999,0.0010832597220000002,0.0096289958755
1438.0,0.0003176654493,-0.002084603127,-0.0005124879672,0.0022114555525
1439.0,-0.0025564623385,0.004112336829,0.00036252542899999996,0.0051080854575
1440.0,0.0052326654255,0.01236426631,0.019680633446,0.0260191512085
1441.0,0.007019998072000001,-0.0055269404845,0.058431202213500004,0.06386639754
1442.0,0.0033758371685,0.001033269814,-0.00353332794,0.0056778012475
1443.0,-0.00138078900005,3.9630831000000066e-05,-0.0026356663600000003,0.0036838844970000003
1444.0,0.0016435430654999999,-0.0022026134115,-0.00136989272,0.004183282544500001
1445.0,0.004052493573,-0.006240296262,0.008651342837999999,0.012284009538
1446.0,0.0004825015874999998,0.0005918244612499999,0.0007663236614999999,0.007752034333
1447.0,-0.00033730965600000003,0.005238704361,-0.008435684958000001,0.0116275869165
1448.0,0.0006344505649999999,-0.010713690546,-0.00045556519999999986,0.0237727571
1449.0,-0.0010066937575,-0.0018515365649999999,-0.0010228963240000001,0.017143833855
1450.0,0.00014085590149999993,0.0017048289185,-0.0005955136065000002,0.0080401344505
1451.0,-0.00025339213699999996,0.00045284295800000003,0.000603344058,0.0041467084640000006
1452.0,-9.978441200000042e-06,-0.0011683398728,-0.000908920474,0.002731981948
1453.0,8.516557000000022e-07,0.00037879580813,-0.0007559352279999999,0.0022570129439999998
1454.0,0.0023635272645000003,-0.000200394218,0.0038134267325,0.0068342981235
1455.0,0.0002236954854999999,0.005750369189,-0.008377023907,0.011778636753000001
1456.0,0.00032874539185000006,-0.00357083307665,0.0039683055705,0.0085917759715
1457.0,-0.0049609820925,0.007529040212,-0.009856105955,0.015063863910000001
1458.0,0.00019787919610000004,-0.00208832403585,0.0008903693695000001,0.003027135918
1459.0,-0.0002560655258,-4.227528594999999e-05,0.0004460037205,0.002293559171
1460.0,0.0006877196811,-0.0018648648425,-0.0001245883936,0.0021722356615
1461.0,-0.0005240498097,0.00065469488885,-0.00045144787800000007,0.0023296235154999997
1462.0,-0.0006218993528150001,0.00017839527734999998,-0.0008609049454999999,0.0036670410529999996
1463.0,0.0015279599008,-0.00092949293435,0.00081256398105,0.002178197883
1464.0,-0.032114005305,-0.00279925546523,-0.056188516305,0.06556062468000001
1465.0,-0.0043693946745,0.0038421637505,0.11145838259999999,0.11245713768999999
1466.0,0.032906511795,0.00915885568,0.17865702615,0.1865102541
1467.0,0.0015042902849999994,-0.003352707844999997,0.026454763560000004,0.1503307667
1468.0,-0.059015309785000004,-0.010161836335,-0.10154232471,0.131733207615
1469.0,0.0209210235075,0.0008309947349999999,-0.007247968299245,0.032658483285
1470.0,0.01333116419,-0.009073870524,0.003699223425,0.01654506932
1471.0,0.0027402788655000003,-0.002666270052,-0.002288688224955,0.0075925258445
1472.0,0.015578533056,-0.006849653606,-0.0007939799919999997,0.018549145511499998
1473.0,-0.002703599339589,0.0078803326215,0.0013441389899999999,0.013670620781
1474.0,0.0032982659714999997,-0.0024743098994,0.00094080148655,0.004284381808
1475.0,0.0065870410285,0.0005410687335000001,-0.0009462806099999999,0.007853186287500001
1476.0,-0.0023670977221,-0.003821573699999999,0.00109305760165,0.012758960043499998
1477.0,0.0008702733734999998,-0.00029554963750000004,0.0004594735620000001,0.004799631683999999
1478.0,0.00025292956399999996,0.002663496204,0.0001526940093,0.0032374230700000003
1479.0,-0.0005500433445000001,0.0013216622710000006,-0.002715591008,0.007980292635
1480.0,0.002065557667,-0.0017877507524000002,-0.00059981352775,0.006087615021
1481.0,-0.0044503516159,0.0015658307375000001,-0.0005724819294499999,0.007956961548500001
1482.0,0.0005269771120000001,-5.9056479000000077e-05,0.0005513078555000001,0.0047982688715
1483.0,0.0009841619121,-0.0030759628314999997,-0.00113838973615,0.003451527952
1484.0,0.00097933900075,-0.00112534501355,0.00107942618065,0.0020550148055
1485.0,-0.00105285924615,0.0003826968947,-0.0007240255764499999,0.002253703873
1486.0,0.0003725043566,-0.0007650990267999999,-0.00120601800885,0.0027367240389999997
1487.0,0.0003602704874999999,-0.00028376589405,0.00160329232005,0.0030558555335
1488.0,0.00372917424675,-0.0024765918565000005,0.002772145028,0.007546542655
1489.0,-0.0029236240400000004,0.00169907651895,-0.004625769113499999,0.0060471529625
1490.0,0.00048590909589999994,-0.0011373573284999999,0.0013772327759999999,0.005228799847
1491.0,-0.002094439085,0.0034833633269999997,-0.0003021778544999999,0.0049738184134999995
1492.0,3.04268381e-05,-0.0014907046879,-0.001186114542,0.002142818743
1493.0,0.0007733460604999998,-0.0014904301096000001,0.0011074152219999998,0.0060915594655
1494.0,0.00036847789990000003,-0.00021483433335000007,0.0002656319993515,0.00119372646885
1495.0,-0.00040438416064999996,0.0008689349097,-0.001659315015,0.001924684876
1496.0,0.0017633331919500001,-0.00272175669535,0.0021531696615,0.0049126151225
1497.0,-0.000974859052,-0.00014057652299999997,0.0009407268295000002,0.009108240799500001
1498.0,-0.0008391379745,0.0010360344255,-0.003099303522,0.0035038828965
1499.0,-0.00015876153895,0.0002143972955,0.0019371154185,0.002071309896
1500.0,-4.339030504999999e-05,-0.00068416892365,-8.948661005e-05,0.0010771572469
1501.0,-0.0008718967165499999,0.000790462869,-0.00138670753385,0.0026955994375
1502.0,0.0008114281329500001,-0.001136722826355,0.0010193407076,0.0019125526718
1503.0,0.0015222687800000002,-0.00069194174615,0.0009501992545999999,0.0020364125035
1504.0,0.002310206474,-0.006396129298,-0.002137192569,0.007128472209
1505.0,0.0030223537375,-0.0012778970234999997,0.00297232022055,0.0107199549415
1506.0,-0.0063708917305,0.010464846373,-0.00500172120475,0.013535717295499999
1507.0,0.007572812706,-0.007453109351,0.0014251318459999997,0.011435284685
1508.0,0.007729662772500001,-0.0088559902115,0.0032988266865,0.015481831415
1509.0,-0.0034509742195,0.0017655351055000002,-0.002726800896095,0.0060440215845
1510.0,0.00038607475355,-0.0005719920875,0.001182685385,0.0031474703525
1511.0,-0.00326373718,0.002544789153,-0.003799364581,0.0057823997969999995
1512.0,0.0015726631475,-0.00272886242,0.0015028488974999999,0.0034990160915
1513.0,-0.0008867796366999999,0.000967959284365,0.00022917362924999998,0.001992576952
1514.0,-0.0021768694804999997,0.00025212664530000004,-0.00176124276545,0.0028785123065
1515.0,0.001783938056,-0.0017388992265,0.0018495942435,0.003196453026
1516.0,0.0008608775585999999,-0.00039414890618999997,0.00080396728955,0.001324291463
1517.0,0.00054011737495,-0.0012305823724,-0.0006469390442500001,0.0016172207224999999
1518.0,0.002086588978,-0.00114172141705,0.0008938819371,0.0030281803715
1519.0,-4.82662056e-05,-0.0007778358298,0.00108074165615,0.0014339555265
