Time (s),Linear Acceleration x (m/s^2),Linear Acceleration y (m/s^2),Linear Acceleration z (m/s^2),Absolute Linear acceleration (m/s^2)
0.0,0.02152138562,0.2298414898,0.01222971016,0.2311706
1.0,0.0391274289,0.054803644999999984,-0.04131335315,0.37102467785
2.0,0.09057546856,-0.161445029315,-0.029279986840000004,0.220042574895
3.0,0.027926233166,0.0013314855275499999,-0.022357806449999997,0.036199734775
4.0,0.0774211595,0.044709089235,0.030202582884,0.11909817435
5.0,0.007578776844999999,0.035530892545,-0.049644047531,0.075782051635
6.0,0.03428674263,0.035315858320000004,-0.007169385763,0.04976182629
7.0,0.03593629376,0.034140550775,-0.009671062518,0.05127557699
8.0,0.02346659618,0.05344980816,-0.0256092367,0.066913583925
9.0,0.03573525846,0.02443690149,-0.00376371800025,0.04516495393
10.0,0.028110615364999997,0.030919259480000003,-0.023681209061,0.053238602790000006
11.0,0.03612912003,0.034455669834999994,-0.004902165155,0.050259147965
12.0,0.03010002157,0.034200338555,-0.0161544179765,0.049647211824999996
13.0,0.0348301668,0.032640026254999996,-0.012991366665,0.04948782714
14.0,0.035949432795,0.03204375644,-0.01361029731,0.050099905845
15.0,0.03429971542,0.031436589015,-0.012367506015,0.048156583385
16.0,0.03647398537,0.03457321607,-0.009293309459,0.051144188709999996
17.0,0.035726579354999996,0.030597272805,-0.01500368593,0.04937834216
18.0,0.035106436275,0.03134587119,-0.015814052695,0.04970394752
19.0,0.03511656572,0.028592434535,-0.015563892185,0.047929472954999996
20.0,0.03573811328,0.032152852875,-0.018366660425,0.0514667668
21.0,0.031384975875,0.028114450455000002,-0.020072757565000002,0.04685456593
22.0,0.02934476195,0.035132040775,-0.02650971078,0.053054641495
23.0,0.030702101345,0.031160571775,-0.02610580576,0.050945434319999996
24.0,0.027757174109999998,0.03341295364,-0.02760733634,0.051477402245
25.0,0.033277209385,0.031753866395,-0.025449515995,0.05266309291
26.0,0.024277868695,0.03232490146,-0.028478276249999997,0.05019948148
27.0,0.02935439839,0.040108755065,-0.02894982266,0.057829185559999996
28.0,0.031543968549999996,0.033523222384999996,-0.028000489934999997,0.05407857464
29.0,0.021519691205,0.03649032031,-0.029670480525,0.05192792109
30.0,0.026861334815,0.036237883969999996,-0.027360314410000003,0.052776866865
31.0,0.02726450033,0.035313485039999995,-0.028489342965,0.052940609805
32.0,0.025825334315,0.03788052736,-0.027934390604999998,0.05376366199
33.0,0.024541881945,0.03625748361,-0.02765735297,0.0517994974
34.0,0.02382285213,0.03582580431,-0.02937388911,0.0520945477
35.0,0.025115098255000003,0.03804606949,-0.02864388717,0.053877766005
36.0,0.024996176204999998,0.03785611523,-0.028621025695,0.05367951376
37.0,0.02248025689,0.04088123531,-0.02780866687,0.054322599415000006
38.0,0.0249092304,0.040738609110000004,-0.026863908734999997,0.054862732435
39.0,0.0224419175,0.042841663405,-0.025296539644999998,0.0546131175
40.0,0.022225713835,0.04712277687,-0.02313140741,0.05703537116
41.0,0.023603787915,0.044198375080000005,-0.02434281578,0.05570948674
42.0,0.023508684670000002,0.045945471525,-0.023124043929999998,0.056602121229999997
43.0,0.024496548825,0.04609180383,-0.02119904022,0.056381459285000005
44.0,0.02473514962,0.045027768225,-0.01863556355,0.054653522065
45.0,0.02302870852,0.04644123516,-0.020971271110000002,0.055926980109999996
46.0,0.025710178559999998,0.044986235799999996,-0.01972278738,0.055444392519999997
47.0,0.026042340535,0.044940335149999996,-0.01945894897,0.055525641865
48.0,0.027342256835000002,0.044003553880000004,-0.019215183135,0.05527518037
49.0,0.026507142589999998,0.043621260630000006,-0.020613306855,0.05505346736
50.0,0.027975837045,0.040391743105,-0.01901495039,0.052692879410000004
51.0,0.026766512465,0.043842675195,-0.017589588395,0.054310484055
52.0,0.027178265365000003,0.044580751455,-0.015117405680000001,0.054358898995
53.0,0.028458031694999997,0.042896432325,-0.012226983665,0.052929270269999995
54.0,0.027883353585,0.04588455443,-0.010210964031,0.05467857982
55.0,0.029309787575000003,0.047850073039999996,-0.0083617218895,0.056737136445
56.0,0.027704675285,0.045550790199999996,-0.0077438345710000005,0.053976791235
57.0,0.02917209138,0.049332769285,-0.0069344308795,0.057764140150000004
58.0,0.028190705025,0.047255078719999996,-0.004117867227649999,0.05557731719
59.0,0.028155157395,0.049711087005,-0.0068099683085,0.057630997645
60.0,0.02881065893,0.04554310283,-0.00487966484,0.05411277951
61.0,0.03021084351,0.044842185055,-0.007277656706,0.054557309545
62.0,0.030366138675,0.044731976505,-0.00355550553,0.054271317535
63.0,0.031436288055,0.04457734631,0.00023273638044999994,0.05455523791
64.0,0.038438483585,0.03950607624,0.003080548241,0.055262451595
65.0,0.03636937753,0.042602558145,0.006850208045999999,0.057780001144999996
66.0,0.040454414365,0.037808193865,0.0110698798845,0.056481815945
67.0,0.04175681286,0.03869112056,0.0127024654865,0.05910245039
68.0,0.045476788525,0.03836713322,0.01881441096,0.062715303205
69.0,0.03835447858,0.04604142892,0.01282268023,0.06128050532
70.0,0.0488406573,0.036931389545,0.026035819745,0.066937183665
71.0,0.046392273325,0.036718679875,0.02326006622,0.06361699601000001
72.0,0.04566439816,0.038389255185,0.023819277875,0.06451561773
73.0,0.04891183855,0.040584182425000004,0.029642651790000002,0.07030588969
74.0,0.049500693295,0.0341813351,0.030485960734999998,0.06783441563
75.0,0.04956415278,0.040087951585,0.033002788660000004,0.07180210114999999
76.0,0.051313616775,0.036713704015,0.035826211324999996,0.07256890893500001
77.0,0.04796012968,0.038510940325,0.03292355029,0.06981275744500001
78.0,0.053935376425,0.037053186475,0.03947790069,0.07661496847
79.0,0.050127033274999996,0.03840421145,0.033735556565,0.0721998109
80.0,0.048143474285,0.04160113361,0.03479181308,0.07256984997499999
81.0,0.050133832095,0.0400948106,0.038875448300000004,0.075091140015
82.0,0.051227731495,0.03775794507,0.03925544566,0.07480517856
83.0,0.053343385970000004,0.040653747095,0.03784429755,0.077013550425
84.0,0.05081735441,0.038308414560000004,0.038814086930000005,0.074550651685
85.0,0.051023921635,0.038923868405,0.038422555654999996,0.07479972038
86.0,0.053121466935,0.040128859165,0.039170930465,0.07730544977
87.0,0.05029651654,0.04012547122,0.039372355580000004,0.075448661645
88.0,0.0521214956,0.040032698265,0.04063909466,0.07727152770500001
89.0,0.050734954525,0.041463279765,0.03920838704,0.076368728765
90.0,0.0512063089,0.042007045024999995,0.041752407384999995,0.0783139618
91.0,0.051126173385,0.04167660282,0.040937703935,0.07763496150999999
92.0,0.052575440175,0.040371882634999995,0.03987838337,0.077489608685
93.0,0.05076208676,0.040055195715000005,0.03925301792,0.07565773495
94.0,0.055264362555,0.038339573915,0.041259578825000004,0.078915732145
95.0,0.053089295785000004,0.0392780033,0.042563132435,0.07859467707
96.0,0.052152285209999996,0.035805502435,0.039974309230000005,0.074906428705
97.0,0.054264282304999994,0.036043799405,0.0394452566,0.07615914733500001
98.0,0.055142683145,0.032557184965,0.043430698725,0.07738162206999999
99.0,0.056175926274999996,0.03397639306,0.042411021704999996,0.078304755445
100.0,0.058775776065,0.033245519769999995,0.046390891775,0.081978857325
101.0,0.060232713029999996,0.03020208415,0.05005346728,0.08396038028
102.0,0.060510616285,0.030612229065,0.050845157345,0.08477417417
103.0,0.06150024607,0.02870680206,0.05293902807,0.08607497572
104.0,0.06482441683000001,0.030281101815,0.056466830985,0.09116762718499999
105.0,0.067874771655,0.028176218835,0.061174106150000004,0.095621759245
106.0,0.06624823104,0.028531620624999997,0.06480086459,0.09766401312
107.0,0.06298964655,0.03620959663,0.05758929002,0.09280061052
108.0,0.07810867741,0.030222709915,0.07058073121,0.10977574495
109.0,0.06853630958,0.030632313105,0.07059948816,0.10307094298
110.0,0.06852789991,0.032390464800000004,0.06514945323,0.09996297680999999
111.0,0.0725799745,0.032364926225,0.072653440175,0.10767653955
112.0,0.07204800972,0.03174012544,0.07428692006000001,0.10828375185
113.0,0.071050405945,0.03350212941,0.073676333165,0.10769858655
114.0,0.07279045706000001,0.030847473440000002,0.07286403166,0.10753205945
115.0,0.074130982845,0.03131285735,0.07456707335,0.10972376689999999
116.0,0.07137169897500001,0.03249232387,0.07352383262500001,0.1075143585
117.0,0.071275563875,0.031428104820000004,0.071992994305,0.10608544
118.0,0.07205108237499999,0.0303918091,0.072569372115,0.10668456225
119.0,0.07283126145499999,0.029399017805000004,0.074598258495,0.10833844000000001
120.0,0.07407579545,0.02734176097,0.07264263429500001,0.1072977205
121.0,0.073500498215,0.029096292545,0.07208965967,0.10699300145
122.0,0.07225460561,0.02727288994,0.071145638165,0.1050281274
123.0,0.07444888220000001,0.027404386365,0.06819942110499999,0.10462033525
124.0,0.07347307363,0.027584380290000002,0.06871755606999999,0.10432050039999999
125.0,0.07451564937999999,0.02002303617,0.069315161575,0.1037226017
126.0,0.072331857645,0.02627637821,0.06496948797,0.10072611475
127.0,0.07312851784999999,0.02253072639,0.06859760502500001,0.10278089005
128.0,0.06900783593500001,0.028033242945000002,0.062832666,0.09748573343
129.0,0.07471684518999999,0.02459763973,0.068842024375,0.10454963765
130.0,0.07079236602,0.027273294085,0.06386038581,0.09916891649000001
131.0,0.07059985504499999,0.02652585081,0.0651320463,0.099761183295
132.0,0.07165196978,0.026492407029999998,0.06292466219500001,0.098989894245
133.0,0.068402253565,0.029016991115,0.06269135256,0.097238572785
134.0,0.06926063055500001,0.024725109029999998,0.065365811675,0.09846105069
135.0,0.066901135725,0.03301358881,0.05586606684,0.09327448028
136.0,0.06829445269000001,0.029157229705,0.061635067385,0.09652515193
137.0,0.0643823272,0.02668227816,0.06258577019,0.09366966774
138.0,0.066770920525,0.031419136225,0.059529648404999996,0.09482847675
139.0,0.068987674505,0.029283586889999998,0.059600947175,0.095803773105
140.0,0.068112082625,0.029078209175,0.058311650455,0.094270211715
141.0,0.06682861305,0.028222460565000003,0.05828825299,0.09311194308
142.0,0.06897217938,0.02728760543,0.05854945155500001,0.094568976285
143.0,0.065366465185,0.023206787765,0.055797124155,0.089027606565
144.0,0.06705103082,0.024299606575,0.054819627345,0.08996820256999999
145.0,0.068383525275,0.021986098375,0.052586228865,0.08902577772
146.0,0.065248231045,0.02327913846,0.05057579848,0.085828166905
147.0,0.06576706825,0.02306373162,0.05257701377,0.087312291095
148.0,0.06583296981,0.021986846480000002,0.05337729695,0.08755965179
149.0,0.066726453025,0.02258461249,0.05018240698,0.08650219273000001
150.0,0.065071140665,0.023910067365000003,0.049762384855,0.08540541448
151.0,0.06596873986,0.021525779195,0.050725114584999995,0.08597921603
152.0,0.065607244355,0.025934118324999998,0.048547969760000004,0.085844102655
153.0,0.06635213376499999,0.021065924345,0.04940206739,0.085671795005
154.0,0.06622601162,0.023680595675,0.050505110225,0.08669560792
155.0,0.062258377705,0.028538035365,0.046722572214999994,0.08296647208499999
156.0,0.064828876765,0.026728256195,0.048870073949999995,0.08548116059
157.0,0.062895592365,0.027715438175000003,0.046849181635,0.0831872971
158.0,0.0612758735,0.02820759029,0.0497715025,0.08385019392500001
159.0,0.06447925339999999,0.026209350200000002,0.04807455453,0.08460728671000001
160.0,0.064726160675,0.02642506373,0.05084976346,0.08647549537
161.0,0.06671675925500001,0.028920563655000002,0.054288960994999996,0.09074692801
162.0,0.06744385479000001,0.0260751824,0.05659192414,0.09183323507999999
163.0,0.06690110132999999,0.02546623502,0.05791505732,0.092082209545
164.0,0.06792403731499999,0.027657163795000002,0.059903176565,0.094705597115
165.0,0.067761989185,0.027336243375,0.06227712892,0.096014632765
166.0,0.06969778445,0.028652715315,0.062295060384999996,0.097779316585
167.0,0.070022522755,0.03018506703,0.06270211258,0.098727416905
168.0,0.069019570495,0.029592609370000002,0.065003805965,0.09932271961
169.0,0.06853624079000001,0.027429566655,0.0613163712,0.09597131542000001
170.0,0.06845929831,0.027739913355,0.05876844698,0.094444441295
171.0,0.06746673346,0.03100396098,0.05670808596,0.09342811532
172.0,0.06487125188000001,0.028814172989999998,0.056795177945,0.090918765245
173.0,0.065605742425,0.02906646315,0.057342104709999994,0.09186673028
174.0,0.067424662165,0.030778997965,0.058252662365,0.09441856404
175.0,0.06435688608,0.02668578363,0.058055023615,0.09068981814
176.0,0.0675029174,0.040941882974999996,0.059445990225,0.098872583375
177.0,0.066107897865,0.035187924679999996,0.058495660039999994,0.09607919037000001
178.0,0.06672716386,0.032144405935,0.05944195737,0.09499084375
179.0,0.06368150401,0.038331720305,0.06328241434000001,0.09777070797
180.0,0.0603204098,0.03295916958,0.058290081679999994,0.09032395552
181.0,0.059374525215,0.034052621835,0.063110603655,0.09345008974999999
182.0,0.06553684846499999,0.042097840245000004,0.056393586009999996,0.096595918485
183.0,0.059806640185,0.0389788523,0.060664475445000005,0.09369022005
184.0,0.059949094405,0.041389616315,0.061597370045,0.095402555605
185.0,0.06120758146,0.040034759125,0.062552251885,0.096243643345
186.0,0.061074333735,0.040336850935,0.06069040097,0.09510261209
187.0,0.062161933045000006,0.04097298214,0.06284393622500001,0.09742860441500001
188.0,0.06177266326,0.040851744135,0.0614170035,0.09622939627
189.0,0.061160213285,0.038909757695000005,0.059186812394999996,0.09360133082
190.0,0.060970946935,0.038421612645,0.059679388720000004,0.09358950036
191.0,0.061307322345,0.038265833075000005,0.05886251836,0.0932178305
192.0,0.061922999765,0.0364662808,0.059276696135,0.09317753433
193.0,0.061198799175,0.037201373260000004,0.055828567270000004,0.0908138933
194.0,0.062704107515,0.035925057935000004,0.055338521870000004,0.09102351395
195.0,0.061805826145000006,0.032283334635,0.053078014095,0.087652310395
196.0,0.06399211728000001,0.03209101857,0.051876351089999995,0.08843936843
197.0,0.062742779395,0.030487886880000002,0.05144617086,0.08669011071999999
198.0,0.06265339152,0.030481004935,0.049578019855,0.08551520984
199.0,0.06074116856,0.029908645645000002,0.045976464635,0.08185083198500001
200.0,0.059784644335,0.031028814515000003,0.04362269377,0.08024957046
201.0,0.05752450631,0.031419537505,0.039025933845,0.07628552333
202.0,0.05260271572,0.031692252795,0.036378541035,0.071432424285
203.0,0.05976171981,0.024897974509999997,0.025393299600000002,0.070423859295
204.0,0.056778814335,0.042562702495,0.02756467173,0.07654736281499999
205.0,0.05683745847,0.01723600956,0.03039198108,0.066717683
206.0,0.04532093157,0.026826684325,0.0101444290235,0.053726713205
207.0,0.049717195049999996,0.029236175715,0.017123344605,0.060322593189999996
208.0,0.046252501939999996,0.025303519043,0.0021291259985000005,0.05823852833
209.0,0.05178330297,0.0237731593945,0.0073684175329999995,0.059719188640000004
210.0,0.048957532819999997,0.020107367925,0.0037459728472,0.05330424838
211.0,0.04588663248,0.021422501312999997,-0.00846783452,0.07063465479
212.0,0.0481963056,0.02501906347,-0.0029822433609999997,0.060786899995000004
213.0,0.03838349109,0.017170583795,-0.007585569936,0.042821568975
214.0,0.043868070455,0.022598170005,-0.013802940135,0.051297963655
215.0,0.041602377575,0.023072356265,-0.014293661975,0.049675668884999996
216.0,0.041402861405,0.02134374734,-0.014737909915,0.048871363475
217.0,0.04029074965,0.021452153,-0.016574930235,0.04857188656
218.0,0.041306204634999996,0.02467933164,-0.016457811075000002,0.050860941005
219.0,0.04080544794,0.025500779449999997,-0.014845309515,0.05036757882
220.0,0.03827047932,0.025442963675,-0.016832955820000002,0.04897408514
221.0,0.038099087105,0.02642021685,-0.01510137456,0.048777637855
222.0,0.037100566115,0.030743401604999998,-0.014277487545000002,0.050293640265
223.0,0.03774080757,0.030169712355,-0.013439079945000001,0.050154862215
224.0,0.036328624735,0.029916737154999998,-0.01694004299,0.050043640695
225.0,0.03604985013,0.03138675584,-0.017664341030000003,0.050992178804999996
226.0,0.03482191764,0.027967401575000002,-0.017128953915,0.047853559315
227.0,0.038502344349999995,0.027582849695,-0.02174641126,0.052128784055
228.0,0.03737408969,0.028651067205,-0.020282053495,0.0513588398
229.0,0.029228207455,0.02425145017,-0.02079171859,0.044730408425
230.0,0.04605670047,0.023332018505,-0.02009551585,0.056183547455
231.0,0.02821900669,0.025212855675,-0.035427210515,0.05262553305
232.0,0.033289929945000005,0.02284754229,-0.02660596627,0.04837445674
233.0,0.033143887135,0.02358012102,-0.030940363914999998,0.05132311472
234.0,0.03544194607,0.022181839655,-0.032557465865,0.053361809135
235.0,0.03224269935,0.022032463355,-0.034869082315,0.053209338825
236.0,0.03890001807,0.01823599235,-0.021622232455,0.048341281959999996
237.0,0.031567661239999996,0.022440048685,-0.040653156635,0.056229225745
238.0,0.035870913865000006,0.02152450656,-0.033632760225,0.053835398495000006
239.0,0.036047069835,0.021498555245000002,-0.035508630129999996,0.05500195208
240.0,0.03135005309,0.02285109075,-0.03441737058,0.05186090603
241.0,0.03247578542,0.019392456954999998,-0.0339433391,0.050857462205
242.0,0.034289660505,0.02558071433,-0.037361174225,0.05876057193
243.0,0.037765772885,0.015901574624999998,-0.03052203003,0.05125057203
244.0,0.03157753271,0.02203435224,-0.036535200555,0.055349655080000004
245.0,0.032786255375000004,0.019565935819999998,-0.037540491705,0.05357437827
246.0,0.036746511475,0.0188866728,-0.034491816524999996,0.053840786700000004
247.0,0.03347468476,0.02058376122,-0.035103922545,0.052721341285
248.0,0.03251119547,0.021391665845,-0.039099187425,0.055200969485
249.0,0.03300103736,0.020527461705,-0.03561462524,0.052817055685
250.0,0.03492481144,0.018980506285,-0.03577583355,0.053747057705000004
251.0,0.03375766707,0.020662340345000002,-0.03583687963,0.053397372365
252.0,0.034487250535,0.019717974894999997,-0.035313373255,0.053282765855
253.0,0.033340634475,0.01639700577,-0.036309899315000005,0.05201663888
254.0,0.035502269845000003,0.016961124495,-0.036315614674999996,0.05355402162
255.0,0.036649774455,0.01935454464,-0.035626924455,0.054745898099999996
256.0,0.03550075072,0.015159264865,-0.036478966965,0.053130700589999996
257.0,0.037511568055,0.01713558363,-0.0388312187,0.05674981773
258.0,0.035898911705,0.019100649365,-0.03789530591,0.055676106875000006
259.0,0.03375183705,0.019755763955,-0.036784076969999996,0.053893310609999995
260.0,0.033836100014999995,0.01739626626,-0.035793756415,0.052267361814999996
261.0,0.037012187175,0.017100374215,-0.034511032080000004,0.053766980005
262.0,0.03744081674,0.014540916075,-0.030246932865,0.05041348421
263.0,0.032745657355,0.019740154179999997,-0.03691909033,0.05322259507
264.0,0.034113831295,0.01968978214,-0.035226510569999994,0.05289808536
265.0,0.03504217996,0.016917617194999998,-0.03203208494,0.050586026135
266.0,0.033640510655,0.02008578482,-0.039117586085,0.055559224744999997
267.0,0.033099740655,0.019334775890000003,-0.036605074785,0.053039923754999996
268.0,0.034808962045,0.01845742698,-0.03699369392,0.054474755585000006
269.0,0.033526002675,0.016658803385,-0.03782713139,0.05323255727
270.0,0.03395114685,0.01985283347,-0.037887670134999996,0.054664155845000006
271.0,0.03833285535,0.015263634795,-0.03185838537,0.05220250318
272.0,0.03541460747,0.013998569624999999,-0.03765504267,0.053561683885
273.0,0.03814356034,0.01429349573,-0.035088582204999996,0.053812043404999996
274.0,0.03693765237,0.009313513882,-0.03593443068,0.05236807244
275.0,0.035884826800000005,0.015125970130000001,-0.038618468905,0.054861598465
276.0,0.036652038814999996,0.016246457165,-0.03713026367,0.054644840614999995
277.0,0.037281273744999996,0.012949080405,-0.037738067400000005,0.0546254878
278.0,0.036222136615,0.01317782979,-0.03610365884,0.05283807405
279.0,0.036500985745,0.013528166862,-0.038867640545,0.055136253305
280.0,0.038401691985,0.011512969845,-0.03766074371,0.055010461335
281.0,0.037862819465,0.01112212074,-0.036197684364999996,0.053589487155000004
282.0,0.039574534524999996,0.008740013812,-0.03639249983,0.05473301322
283.0,0.03722819593,0.0117165618685,-0.03926438273,0.055517083640000006
284.0,0.03915246874,0.0096677032375,-0.03681555735,0.054629893105
285.0,0.039637099735,0.0081901433715,-0.03839739256,0.055824242775
286.0,0.040382969415,0.0059507314335,-0.037654079605,0.05554520091
287.0,0.04129964085,0.007051197483,-0.03904948322,0.0573015639
288.0,0.041626712314999995,0.0051224446735,-0.039759750809999994,0.057805781934999995
289.0,0.043233332265,0.006489116681,-0.037220236265,0.05741678995
290.0,0.041084686885,0.0045068991095,-0.038118832925,0.05624469721
291.0,0.042287843224999996,0.0046308084885,-0.038615304530000005,0.05754672198
292.0,0.041170612290000005,0.0066800655335,-0.038595876870000004,0.05682988836
293.0,0.040804272764999996,0.0045301360595,-0.03881820291,0.056549913985
294.0,0.041442249855,0.006459983789,-0.038937440255,0.05744695738
295.0,0.041310005329999996,0.0062010782519999995,-0.03649709047,0.05554350208
296.0,0.041905435325000004,0.007945798547000001,-0.03881920038,0.05772147692
297.0,0.041467375685,0.006112361086,-0.03633776817,0.05549172689
298.0,0.04023885275,0.006861443869,-0.041464463539999996,0.0584001683
299.0,0.040634955745,0.007096418815499999,-0.03732734923,0.055726080045
300.0,0.041529367639999995,0.0051474099915000005,-0.03583735543,0.055180081895
301.0,0.039565012735,0.006639266873,-0.036861979655,0.054549558195
302.0,0.04235384797,0.0044999340439999995,-0.03804563668,0.05714932918
303.0,0.042610833104999996,0.0026449880005,-0.03631250476,0.05605970188499999
304.0,0.04319678717,0.003509005834,-0.039257755885,0.05850401864
305.0,0.04366579692,0.003718766097,-0.038304828845,0.05829802727
306.0,0.04157180581,0.002690034491,-0.038617520165,0.056837597054999994
307.0,0.04258368941,0.0035318902309999997,-0.036394801455,0.056182774505000005
308.0,0.04126052183,0.007715756472,-0.03874200567,0.05712185714
309.0,0.041664822399999996,0.0083157065945,-0.03178367859,0.05305979944
310.0,0.041062937534999996,0.0041783916424999994,-0.041450183725,0.058605997935
311.0,0.042247313995,0.0081872168995,-0.035286473195,0.055888710514999995
312.0,0.042120102665,0.005802805475999999,-0.034310375125,0.054639149765
313.0,0.041592213735,0.0075228470825,-0.032857754785,0.05353941617
314.0,0.04291612082,0.009652586466,-0.03353480503,0.055344076255
315.0,0.04188483822,0.0098957073865,-0.034010398634999994,0.054889901495000004
316.0,0.040954305440000005,0.01176214149,-0.03274351624,0.053755746765
317.0,0.038273271075000004,0.01373955517,-0.033161832925,0.052497138809999996
318.0,0.039997374205,0.01328090703,-0.034049769885,0.054307479990000004
319.0,0.03800464884,0.015110262905,-0.033146022515,0.05266822469
320.0,0.03714925852,0.016515411885,-0.032769533485,0.052242602035
321.0,0.03537769549,0.018210645815000003,-0.0323603803,0.05128980591
322.0,0.03664267754,0.02067836,-0.030800042205000003,0.052165894655
323.0,0.034836346505000004,0.022916677014999998,-0.028535808264999997,0.050554596465000004
324.0,0.036227238595,0.02394439969,-0.025334595275,0.05027990227
325.0,0.037259799555,0.02433592237,-0.024628105445,0.050895957975
326.0,0.036207037045,0.023885620844999997,-0.02095063674,0.048227295754999996
327.0,0.036573416695,0.025254700525,-0.021509094564999998,0.049378238195
328.0,0.037680632840000006,0.023743312795,-0.01870078007,0.048330855320000005
329.0,0.03908417097,0.02332415916,-0.0183844543,0.04909462322
330.0,0.03787891651,0.023221706765000003,-0.015939819430000002,0.0472718911
331.0,0.037710063825,0.024593801775,-0.0170555341,0.0481775146
332.0,0.040601454640000006,0.02364569296,-0.016184448009999998,0.04979979757
333.0,0.039892456810000004,0.022091405585,-0.016292094105000002,0.04850107906
334.0,0.037040935985,0.022588989305,-0.018374508305,0.04728303022
335.0,0.042859941685,0.023432880104999998,-0.010759805474,0.050143892865
336.0,0.037789820995,0.023847762985,-0.01810998485,0.04866404866
337.0,0.042024386035,0.025246921435,-0.01365576801,0.051272256385
338.0,0.038794561815,0.022844498300000002,-0.011181871262000001,0.04652084699
339.0,0.043151700550000005,0.021904936729999998,-0.01669085415,0.051532217125
340.0,0.038537330189999996,0.020685087165,-0.0181136107,0.04992396888
341.0,0.0302704105855,0.033022213458,-0.039388833837,0.08389132271
342.0,0.08145506186,-0.02704524694,0.05563661235,0.1022829659
343.0,0.08286983009,0.0223616358025,-0.010520499575000002,0.15674405479
344.0,0.0062898040184,0.022442272915,-0.010942476507,0.029523402754999997
345.0,0.055593658245000004,0.03003655062,-0.0057518687754999995,0.06384356974
346.0,0.036134531565,0.015959849005,-0.0063870885005,0.04050202513
347.0,0.039703081545000005,0.026233796725,-0.013978058509999999,0.049953682910000005
348.0,0.04520210697,0.02401889723,-0.011079840214,0.05259424618
349.0,0.04386420671,0.02189776816,-0.010844458255,0.050241230634999995
350.0,0.04147461591,0.02367600389,-0.012313771825,0.049333840235
351.0,0.04340998697,0.02208117869,-0.013144867545000001,0.0504792976
352.0,0.04310283044,0.022182068955000002,-0.012389152179499999,0.050160475825
353.0,0.04467731937,0.02354054053,-0.01338312438,0.052277425545
354.0,0.04302778544,0.022064213165,-0.01224862983,0.049909946675
355.0,0.044445574720000006,0.022025509755,-0.014161282735,0.051671857185
356.0,0.042972546449999996,0.01883979189,-0.012905607505,0.04867928084
357.0,0.046593566589999996,0.02107803725,-0.0111591330415,0.052446114625
358.0,0.0447852005,0.02007444294,-0.0175323946,0.05217962152
359.0,0.042448813635,0.022457942885,-0.01447374762,0.050178926639999996
360.0,0.045126396995,0.02360505481,-0.016776550255,0.055670850095
361.0,0.03898518678,0.021287728725,-0.0180802041815,0.049678297499999996
362.0,0.048533454904999995,0.0164857258,-0.006918316641,0.051750928955
363.0,0.04285631870499999,0.020378784785,-0.018469218864999998,0.051043858185
364.0,0.044431673255,0.01851178889,-0.017293206215,0.051264355165
365.0,0.04624114,0.017687268425,-0.018663128585,0.053063533334999996
366.0,0.043212431334999996,0.017388289395,-0.015659669005,0.049360417265
367.0,0.04511630195,0.01788521674,-0.017466040165,0.05176012663
368.0,0.04395509078,0.0166169356,-0.01523900197,0.049430436095
369.0,0.046214603955,0.013439647465,-0.015416040755,0.05053843367
370.0,0.04549654868,0.014467014721,-0.015221767015500001,0.05141070692
371.0,0.046350270825,0.0164384808715,-0.01820887732,0.054183901745
372.0,0.0423337668,0.014026624795,-0.022033354775,0.05087322045
373.0,0.04204485702000001,0.020655484199999997,-0.0109383834535,0.049647355805
374.0,0.047639696525,0.015140714284999999,-0.017694697825,0.05318259047
375.0,0.043544438535,0.012863539085,-0.014219542785,0.04779339946
376.0,0.04540189257,0.01637779021,-0.01803694625,0.05176229189
377.0,0.04406486939,0.01371335449,-0.01718884202,0.04924657445
378.0,0.042337349654999995,0.015623321685,-0.021760834395,0.05167834535
379.0,0.05261292542,0.006962345602,-0.00634800101,0.05425189889
380.0,0.0488950536,0.003979563380065,-0.0149507113075,0.05180711139
381.0,0.04598303702,0.010278682814,-0.020133471155,0.052027636955
382.0,0.049761599495,0.0053173977225,-0.0158880113745,0.053749789640000004
383.0,0.052561005585,0.000645667323,-0.015376861540000002,0.054954575905
384.0,0.047926192895,0.008372929052499999,-0.017182926010000002,0.051600096304999996
385.0,0.053064410719999996,0.00137077939,-0.01859134255,0.05627315542
386.0,0.049637569735,0.0052239798535,-0.015307015975000001,0.052477597745
387.0,0.051559136775,0.000664610582,-0.01519952753,0.05392083708
388.0,0.049292291645,0.002373058077,-0.017623201285,0.05257356888
389.0,0.04801731201,0.0035550354595,-0.01744267137,0.051276123765
390.0,0.049941103279999996,0.003919603623,-0.01350322734,0.051974605755
391.0,0.04927347164,0.0045217779805,-0.017719307725,0.052591505235
392.0,0.04817280208,0.004001438845499999,-0.01614936185,0.05096937084
393.0,0.049702106940000004,0.004424625346,-0.01650951594,0.05276787577
394.0,0.04969357115,0.0036172194515000002,-0.01627184669,0.052437572220000006
395.0,0.048218662600000003,0.0064879873655,-0.01458811228,0.050841769995
396.0,0.050577056775000004,0.007442058053499999,-0.0129774738,0.05275603638
397.0,0.047990185515000006,0.006366067187,-0.013454021875,0.050277795114999996
398.0,0.04829456748,0.0073419445489999995,-0.013944858365,0.05081490606
399.0,0.049806840894999996,0.007570395838,-0.015769846025,0.05284403337
400.0,0.048664449735000004,0.007585604331,-0.01479250973,0.051495215925000004
401.0,0.048331548254999995,0.0087857510765,-0.013224828215,0.05089370231
402.0,0.048195124689999994,0.007374580038,-0.014604077469999999,0.050964046609999994
403.0,0.04606277699,0.009123754536,-0.015528189775,0.049479689305
404.0,0.04740147408,0.010298050282,-0.01694490707,0.051620577805
405.0,0.046854484254999995,0.010591978923,-0.0133256410925,0.050699853365
406.0,0.04363027222,0.015238517565,-0.013920558025,0.0482896508
407.0,0.0500197598,0.012932822850000001,-0.011715125863000001,0.053226600045
408.0,0.041784512610000005,0.016296250215,-0.016161239725,0.04794515802
409.0,0.045970843855,0.01771821854,-0.01567157554,0.05170313068
410.0,0.04264592213,0.018289084495,-0.014992894385,0.04878048168
411.0,0.0442471764,0.01568629677,-0.01520139061,0.0493452612
412.0,0.04425725425,0.01950602192,-0.013856155535000001,0.050318681445
413.0,0.04075040386,0.017315646339999997,-0.018241464085,0.048063833375000004
414.0,0.0453500014,0.01880856088,-0.007167620133,0.04964171935
415.0,0.04386262452,0.02027850217,-0.014795674105,0.05055300134
416.0,0.042424289725,0.022312673970000002,-0.0157943871355,0.05284583101
417.0,0.045168152995,0.021188707275,-0.014033357693,0.053146507600000004
418.0,0.04228825024,0.01954123133,-0.01448021109,0.048881593945
419.0,0.040326325945,0.02226958802,-0.015876967595,0.04877702999
420.0,0.04099678374,0.02270366352,-0.016036103580000002,0.049532026105
421.0,0.04008894046,0.024317784534999998,-0.014224355269999999,0.04902235716
422.0,0.039449106015,0.02314087761,-0.015927356835,0.048466325645
423.0,0.04211035157,0.024665246725,-0.014059008054999999,0.05079056472
424.0,0.042772640465,0.02449338158,-0.012559658710000001,0.0509523732
425.0,0.042233584505000005,0.02629972981,-0.0131776836095,0.05160237331
426.0,0.040873476285,0.02211670339,-0.0127691667375,0.048668036855
427.0,0.039729611855,0.029181498515,-0.01500365727,0.051555737909999996
428.0,0.04220594781,0.02348125435,-0.01443825158,0.050468431305
429.0,0.038831405005,0.02438032968,-0.015260255455,0.048585925715000006
430.0,0.045604085850000003,0.02172099021,-0.011797534343,0.052593776565
431.0,0.042643594709999996,0.02456009717,-0.0112245588,0.05052182379
432.0,0.037023801349999996,0.03312883629,-0.011574506059,0.051931219929999994
433.0,0.041503983844999995,0.021394735635000002,-0.013220027195000001,0.048644142635
434.0,0.042292647115,0.02319433664,-0.013525048347499999,0.050263023795
435.0,0.04162239569,0.027262892344999998,-0.011204426035,0.051042469514999994
436.0,0.041442066415,0.025221311205,-0.0119683103,0.049980361104999996
437.0,0.042399593835,0.022968424875,-0.013074153495000001,0.049996204350000004
438.0,0.038785412645,0.024525521204999998,-0.01094684185,0.047273646615
439.0,0.041982847875,0.026412234255,-0.014359294105,0.05175764558
440.0,0.042293312095,0.026136517975,-0.012153222759999999,0.05123661593
441.0,0.03759831895,0.025443857955000003,-0.013120177390000001,0.04727424676
442.0,0.041146203034999995,0.02451692236,-0.013955945145,0.049988358855
443.0,0.040383456685,0.02474514721,-0.014061905865,0.049453527645
444.0,0.040369446295,0.025662320245000002,-0.0124859236,0.04954846402
445.0,0.04199345312,0.02436909672,-0.0126347553,0.05016911422
446.0,0.04166940845,0.027202789275,-0.012151895674000001,0.051318127905
447.0,0.04142945477,0.02402972891,-0.0138651957865,0.05000856719
448.0,0.04014814638,0.021947887970000003,-0.01455673222,0.048064743465
449.0,0.042233962855,0.0193831616,-0.013009994635000001,0.048275050595
450.0,0.043488614825,0.021115296055,-0.016335888035,0.051070781575
451.0,0.04474586364,0.018158849235,-0.01311263047,0.050078660785
452.0,0.044468390329999996,0.019039634819999998,-0.013174602351999999,0.050371042185
453.0,0.04319051001,0.01666854014,-0.014719095639999999,0.048601874465
454.0,0.04743884467,0.01656890531,-0.012169156427,0.051777684765
455.0,0.046675691305,0.015879358070000002,-0.010834844744999999,0.050508800975000004
456.0,0.044789305015,0.01532521114,-0.01436329544,0.04952253229
457.0,0.047212116015,0.013801699035,-0.013814416730000001,0.05115608126
458.0,0.044354667715000004,0.015013468555,-0.01428349527,0.049000455675
459.0,0.03913033531,0.040882384689999995,-0.0030621151809999995,0.064088626545
460.0,0.0526843531705,-0.010648232575,-0.03773428104,0.07693819334
461.0,0.045260877219999995,0.004686689526500001,-0.014771687622,0.049819077645
462.0,0.064991704505,0.01222412025235,-0.016589026608,0.073764204375
463.0,0.044165940255,-0.023105969200000007,-0.028559469424499998,0.17831844575
464.0,0.02857023518,0.049392537001499995,-0.031661438105,0.07944169433
465.0,0.05080756892,-0.0008597470750000002,-0.017699512466,0.06364376500499999
466.0,0.044598450750000004,0.022944385365,-0.024352049506,0.07377517617
467.0,0.035131332805,0.02361127751,-0.0196647487475,0.04832307545
468.0,0.05074168456,0.006486631616000001,-0.0063456528105,0.051827238905
469.0,0.046239362905,0.01493413273,-0.0105437057155,0.049876815539999994
470.0,0.04686634493,0.01381784194,-0.011236516929999999,0.05032865406
471.0,0.03754179013,0.02064086043,-0.028902136326,0.059204008515
472.0,0.054834173725000004,0.0040239248295,0.012690372645,0.062464225855
473.0,0.046302495634999996,0.0101628620815,-0.008019801654,0.04810554715
474.0,0.04657270579,0.011560472740000001,-0.009784731389,0.04899693647
475.0,0.044999265915,0.012709946480000001,-0.0066682643345,0.04739302862
476.0,0.044066686615,0.0018847869070000001,-0.0028410395514999994,0.045825881435
477.0,0.057676201430000004,0.0128978914745,-0.006845128991,0.06125655469499999
478.0,0.046522041385000004,0.0097683498725,0.0008302250834999999,0.047867368689999995
479.0,0.04974680375,0.005133167435,-0.003404359305,0.05012667507
480.0,0.053368775495,0.005099368236,-0.0029856628355,0.053806585855
481.0,0.047089083724999994,0.0066497861285,-0.0065691697930000004,0.04805469682999999
482.0,0.051157341334999995,0.006334027884999999,-0.0066525291605,0.05198028164
483.0,0.051429878915,0.00293557455445,-0.00331538775595,0.05184802301
484.0,0.0499750286,0.0057717177795,-0.0072877854305,0.050841784104999996
485.0,0.051009011235,0.005329843119499999,-0.004871816243,0.05161957463
486.0,0.05136217159,0.0024058426125,-0.0024075186713500003,0.05157899361
487.0,0.047337951535000006,0.0068742676156,-0.01586502881055,0.05413069065
488.0,0.055790491580000004,-0.0013321390395,0.00650643404,0.05698221345
489.0,0.050012324664999996,0.0023359655193000003,-0.007957364713,0.05072599456
490.0,0.052002636615,0.00011367101879999997,-0.007826146315000001,0.052591422845
491.0,0.05101519667,0.0028822359089999998,-0.0074610916,0.05173778468
492.0,0.05201663554,0.0013082543104999999,-0.0055279476455,0.05234191246
493.0,0.051942261244999996,0.001454893307,-0.005270865063999999,0.052490805495
494.0,0.053605513205,0.0016642465572500001,-0.0031796012205,0.05380492304
495.0,0.051545510465,0.0016947065379999998,-0.0020128832079999996,0.05212549523
496.0,0.05353291028,0.0014437434690999999,-0.0025633806474999994,0.054034797925
497.0,0.05221677082,-0.0001973320629999999,0.0037638878275000004,0.05277806104
498.0,0.05503938233,0.0023965329285000002,0.0013794670910500001,0.05511956918
499.0,0.05338310117,0.0010743714166,0.005738104172,0.0537188735
500.0,0.05158656709,0.0023884643435,0.004714786257,0.0518592884
501.0,0.053527355425,0.0016608070190000002,0.0058373678234999995,0.053924236104999995
502.0,0.052664805125000005,0.0026489004754999997,0.0039000104345,0.052904673845
503.0,0.05409650161,0.00135279346905,0.0049689488135,0.05440974665
504.0,0.05340345751,0.001271047101475,0.004433937897,0.05362255825
505.0,0.053364865885,-0.00023502654000000017,0.0036520311650000002,0.053627363235
506.0,0.054418098469999995,-0.0009623083820999999,0.005406278267000001,0.05470413664
507.0,0.054243989025,-0.0018121323866,0.0030820988995,0.05438328311
508.0,0.05411790700499999,-0.0015191926144999999,0.006147850675,0.05453208951
509.0,0.054310991235,-0.0031919176354999997,0.0061309431929999995,0.05475686971
510.0,0.054744120869999996,-0.0029327369347999996,0.002866428363,0.05496665311
511.0,0.05500653474,-0.004652615163500001,0.00503338427,0.055433001655
512.0,0.054860686835,-0.004763348243,0.0062187868595,0.05554325846
513.0,0.05255002772,-0.0001386535343,-0.0008029875203,0.05255634526
514.0,0.055647074285,-0.0028321476280000002,0.0065392458064999995,0.056108879550000004
515.0,0.051959974869999995,0.00055592689433,0.0015163750598,0.052033701185
516.0,0.066165687845,-0.009655696384,0.0231293745005,0.073182275435
517.0,0.04353294474,0.0038649665519999996,-0.0186973677635,0.05275413642
518.0,0.057148306775000005,0.0024708613574999996,0.005454509197,0.05792204852
519.0,0.0505453213,0.002550389223,0.003593935208,0.050757922715
520.0,0.082726619175,-0.021755738144500002,-0.029257586842,0.09495990572999999
521.0,0.024009120350000003,0.046219485234999996,0.004883640375000001,0.118290009355
522.0,0.0450242943,-0.0012773643999999945,-0.02626459208,0.20767704325
523.0,0.054367628975,-0.11041763373499999,-0.00846017295,0.2363178061
524.0,0.07609369823,0.0846313209915,-0.018870249005,0.134084155165
525.0,0.16875740813,0.068398943005,0.0093458312115,0.23123570654999998
526.0,0.001426691949999996,-0.107122375175,0.020326434990000003,0.19269711785
527.0,0.087449363635,-0.0013173948849999999,0.030305102629999997,0.108507062825
528.0,0.04584881476,-0.0072472454525,0.003035600635,0.054224421055
529.0,0.054687735370000004,-0.019135663871000002,0.0050911978965,0.061097222220000004
530.0,0.04641421185,0.021830232818500002,-0.008103049952,0.056826030795
531.0,0.05223232327,0.01221331437,-0.0026267240499999994,0.05672640193
532.0,0.053936855425,0.0042346452965,0.010618072122499999,0.055376583235
533.0,0.048745559785,0.0126374696715,-0.0060402540250000004,0.05127475329
534.0,0.051026231855,0.0069776544149999994,0.0007812439034999997,0.0519821994
535.0,0.04892700691,0.0092068967835,-0.00162280011725,0.04981934653
536.0,0.05007949885,0.0114017408985,-0.002451631471,0.051462736349999996
537.0,0.048071989205,0.010471858766,-0.0038350282345,0.04938937264
538.0,0.048219012285,0.01267866388,-0.0017669927417,0.049967292955000006
539.0,0.049533810319999996,0.01308640112,-0.00070395173835,0.051257081324999995
540.0,0.046855613569999996,0.013567661365,-0.0011920337337,0.048869954300000004
541.0,0.047094816285,0.013117735315,-0.00141598209295,0.048937324305
542.0,0.04676710851,0.014956911074999999,-0.0011827570115,0.049129027595
543.0,0.04465883185,0.016115353415,-0.0008549589488,0.047523124119999996
544.0,0.04562200012,0.01506223261,-0.001891340662,0.04808793254
545.0,0.04549547669,0.017099981535000003,-0.004017772355,0.048811285785
546.0,0.043498887575,0.02092974441,-0.0031069338015,0.048639343604999996
547.0,0.043761914825,0.019491234774999998,-0.0013973655901,0.048016016435
548.0,0.04285942576,0.02451469812,-0.008707085962,0.0501369539
549.0,0.043266197055,0.017106493725,-0.002334410561,0.047720245785000004
550.0,0.044354919945,0.019588788685,-0.0033920328581,0.048723402705
551.0,0.04217719327,0.02060544751,-0.002228597455,0.046996603065
552.0,0.04335458747,0.02019878226,-0.0012574537581,0.047859090194999995
553.0,0.043164547225,0.023252338725000002,-0.0040377503415,0.04922767689
554.0,0.04383624899,0.018743089265,-0.00189280676475,0.047743009915
555.0,0.0422674009,0.023334483505,-0.0054768074395,0.048599366295
556.0,0.042235625299999996,0.022200066339999998,-0.0041564731825,0.047921303775
557.0,0.04117277347,0.022938134005,-0.008359930465,0.047920998445
558.0,0.040090390795,0.022798204975,-0.004321469283,0.046328219945
559.0,0.040393133250000005,0.02324290579,-0.003998962377999999,0.04679697541
560.0,0.04197520063,0.02273435854,-0.0055321395835,0.04813819088
561.0,0.039687741205,0.025483275064999998,-0.0067153107725,0.047714930574999995
562.0,0.040150508195000004,0.02417034585,-0.004197604332,0.04705392066
563.0,0.042758251725,0.026004095735,-0.005360744508,0.05034678085
564.0,0.042696540675,0.02268405815,-0.0061831138285,0.048748078065
565.0,0.04078037944,0.028562444625000002,0.0023360271465,0.05139334339
566.0,0.039023635085,0.02333307616,-0.0016192043660000002,0.04566889647
567.0,0.040033919305,0.027019378745,-0.002769973668,0.049265191454999996
568.0,0.033256824385,0.030221121995,-0.016316266896,0.051160324130000004
569.0,0.04659408825,0.015276527334999998,0.01352357221,0.05099033664
570.0,0.03949380282,0.025183493475,-0.0039480901685,0.04701702364
571.0,0.039216994485000004,0.022544914485,-0.003296389321,0.045458757424999996
572.0,0.03997464459,0.025222962185,-0.0023419503167,0.047438091895
573.0,0.0386041031,0.025862252029999998,-0.0050423019905000005,0.046743593114999996
574.0,0.04157283194,0.0245352551,-0.0015628374937,0.0484239908
575.0,0.041254491175,0.02596339166,-0.00108203442195,0.048915963679999994
576.0,0.03918269082,0.02418502981,-0.001241531560605,0.046130387265
577.0,0.041010570565,0.023638561645,-0.002079344409,0.047724898754999995
578.0,0.040131430225,0.025132158365,-0.0005717258419999999,0.047405767385
579.0,0.04076028107,0.024978365125,-0.003138520231,0.047926619875
580.0,0.04032505905,0.026059068164999998,-0.00018295335859999998,0.04808773767
581.0,0.040966848295,0.024577853785,0.00208187103725,0.047880831725
582.0,0.04135431805,0.02794149325,0.00156348814,0.04993346735
583.0,0.04129381657,0.022568698895,0.006855545059999999,0.062881280135
584.0,0.043438775910000005,0.027843520860000002,0.001279111386,0.052914920345
585.0,0.034739087825,0.03007935281,0.003563286053,0.046158860674999996
586.0,0.041107754725,0.02959417436,0.0059375465355,0.05108074551
587.0,0.038130329585,0.030354831195,0.007176673284999999,0.049296176285
588.0,0.03967975001,0.02976221875,0.0078438463235,0.050233406615000004
589.0,0.041012536835,0.029693694545,0.008821198386,0.051538572275
590.0,0.038711772125,0.03180852066,0.01031713112,0.051204382065
591.0,0.038810779244999996,0.032480572114999995,0.0100907808185,0.05165015298
592.0,0.041560506925000004,0.028080763035,0.0104178995705,0.051272859845
593.0,0.03934219369,0.03040102133,0.009211909913499999,0.05057811858
594.0,0.0420517361,0.030034185935,0.010824864350000001,0.052800750335
595.0,0.041023101945,0.027988718115,0.009948732176000001,0.050650307205
596.0,0.041348809055,0.02989047628,0.0092868646235,0.0518651631
597.0,0.04068515581,0.02841706679,0.007999918255,0.050304062655
598.0,0.04087348775,0.028682653635,0.007652797151,0.050528238919999996
599.0,0.039799147859999995,0.03197639594,0.008491310806000001,0.051771989569999996
600.0,0.03889895755,0.031085460854999997,0.009771792275,0.050745481215
601.0,0.036996244910000003,0.03335309134,0.0064699856805,0.05029139819
602.0,0.038042581219999996,0.032317824605,0.0075677932535,0.050507190265
603.0,0.038846086105,0.0309287956,0.007813575517500001,0.05026844303
604.0,0.039085053785000004,0.032464727304999996,0.007372480486,0.051350623479999996
605.0,0.03762530786,0.03265967749,0.009610234277500001,0.050825112845
606.0,0.03791307686,0.033724280610000004,0.0098448108155,0.05169254063
607.0,0.037808062010000004,0.03641952314,0.008237634803,0.05326144182
608.0,0.040146334889999996,0.030591660624999996,0.020024037935,0.055519705734999994
609.0,-0.004639307014999998,0.034979823995,-0.0594924770235,0.08616804709
610.0,0.1044405927,-0.016567093815,0.15695186972,0.20350175774999998
611.0,-0.013806216298000001,0.06711252977,-0.09787934028,0.1208978211
612.0,0.1004042196,-0.005493837455,0.139797312765,0.1744431263
613.0,0.049313295765,0.019690573235,0.071157976075,0.089625111235
614.0,0.04530453643,0.032995115625,0.041986963855000003,0.070120771355
615.0,0.05023340674,0.027658895024999998,0.054547243115,0.079176338785
616.0,0.04676371483,0.03023566551,0.0462500828,0.07238860858
617.0,0.04601793687,0.03004735077,0.038509286485,0.067123733155
618.0,0.042984051705,0.031149390409999998,0.032502652515,0.06230542845
619.0,0.042552699165,0.031966808225000004,0.027668224775,0.05998602376
620.0,0.041219642915,0.034025635789999994,0.025975626385,0.059433846925000006
621.0,0.03980196255,0.0344653808,0.022931518625,0.057453754285000005
622.0,0.038460760329999996,0.03578175529,0.01939593089,0.056041816295000005
623.0,0.036947965255,0.038594483855,0.01968985093,0.05697016287
624.0,0.036474719135,0.039830986525,0.015798110435,0.056279576755
625.0,0.033900172884999996,0.042685734785,0.016313424979999998,0.056908191485
626.0,0.032616336435000004,0.045058609425,0.018001941780000003,0.05846951685
627.0,0.032511808855,0.043863128985,0.014382211465,0.05647052267
628.0,0.031180965375,0.049516904985,0.016029240265,0.060676182825
629.0,0.03008205572,0.04677086334,0.014296800555,0.05745621937
630.0,0.0288980748,0.050311983,0.011876488955,0.059267534440000005
631.0,0.025842348565,0.052348614075,0.013676478334999999,0.059965449695
632.0,0.02535268438,0.054035260625,0.011370594445,0.060764267110000006
633.0,0.024222727155,0.056984206385,0.01237621092,0.063162675495
634.0,0.0230206944,0.057509836679999995,0.012750629055,0.063341051195
635.0,0.023987462709999997,0.059141565265,0.0128010226,0.06511666549
636.0,0.02156731162,0.058533758660000004,0.012075631074999999,0.06356892826999999
637.0,0.021867296709999998,0.062933948955,0.0100204135905,0.06738137175
638.0,0.01970689958,0.06437549398,0.013747163715,0.06875770539500001
639.0,0.018229382704999998,0.06294910012,0.01171817989,0.06658814235999999
640.0,0.019896400955,0.06568682954499999,0.012345586125,0.069755251755
641.0,0.016735533755,0.06562780133,0.01191172272,0.06879307309999999
642.0,0.018010656715,0.066850041375,0.011470947285000001,0.07018943732499999
643.0,0.01850812291,0.069813754225,0.012249383664999999,0.073256990485
644.0,0.01619609945,0.06667469943,0.0103613650235,0.069404825155
645.0,0.0189945138,0.06779211381,0.010111714713,0.071145038335
646.0,0.01932309866,0.06575440501499999,0.010988570623,0.06954641018999999
647.0,0.01622542725,0.06842774628,0.0102933452785,0.071119942045
648.0,0.015580771725000001,0.070269452965,0.011739211230000001,0.07294676426499999
649.0,0.01437322997,0.069507623825,0.008853547249,0.07157569842
650.0,0.01797459315,0.06907629995,0.0109817503,0.07221648048
651.0,0.01416755129,0.06994612486999999,0.0046603483925,0.07154534811999999
652.0,0.013838318655000001,0.06632280597000001,0.0026963546430000002,0.06792916070499999
653.0,0.01462633415,0.07027089756999999,0.0001729543330000001,0.07180449433
654.0,0.015855848825,0.06925520755,0.0027138618951999998,0.07119103324500001
655.0,0.0158682197,0.066246883885,-0.0025253536815,0.06819698627500001
656.0,0.016361317685,0.067290004225,-0.0014290466074,0.06927154157000001
657.0,0.014905664815,0.064349720375,-0.002502625497,0.06611848548999999
658.0,0.016659428230000002,0.06737720226499999,-0.0037188320214999997,0.069540424765
659.0,0.012808457735,0.0689089148,-0.0062883680095,0.070393970685
660.0,0.012078146235,0.06872618358,-0.0074392261665,0.07018961863
661.0,0.0105883616755,0.07610330027500001,-0.0066552263325,0.077146141925
662.0,0.0097360841295,0.074231853045,-0.0064726799855,0.0751512935
663.0,0.0091282030065,0.07599090188499999,-0.0056726089075,0.076747722795
664.0,0.0078280688735,0.07856212898500001,-0.0050634121585,0.07915844963
665.0,0.00615338045,0.076276859395,-0.0052041036195,0.0767118111
666.0,0.0067479047005,0.08115561562500001,-0.005000121782,0.08159437639
667.0,0.0057730248044999995,0.08249287384500001,-0.0034568896584999996,0.082772524215
668.0,0.004784277835,0.082452035055,-0.006724568864,0.08286748815
669.0,0.0031569805215,0.08635636426,-0.0051230652235,0.086589942295
670.0,0.00109872048385,0.08932973075,-0.0047882089415,0.089467917265
671.0,-0.000302977491835,0.09101993722,-0.0043622220835,0.091130538155
672.0,-0.0012939601613,0.09478580207000001,-0.00196440649395,0.09483487022
673.0,-0.0034153586625,0.095766706885,-0.0039453113080000005,0.095933645855
674.0,-0.003779107069,0.099947534885,-0.0060828670419999994,0.10021820589
675.0,-0.0061163710145,0.099743822475,-0.005844142997499999,0.10011432701
676.0,-0.005718284547,0.10114087705,-0.010688033768,0.10190043365000001
677.0,-0.0072757936225,0.101157449905,-0.013932612175000001,0.1023935586
678.0,-0.008158791977,0.096093726755,-0.017712285335,0.098058754715
679.0,-0.010387349305,0.1003249153,-0.02461136349,0.1038321398
680.0,-0.011715177455,0.101176825975,-0.02634806536,0.10522751595
681.0,-0.01172264699,0.10077331076000001,-0.02793453965,0.1052296133
682.0,-0.014061751085000001,0.10050671786000001,-0.03108273215,0.106150662
683.0,-0.014543039993499998,0.10545484385,-0.034627357275,0.11208066215
684.0,-0.01007596787,0.09876652342,-0.03331391499,0.1047194739
685.0,-0.0104870271355,0.097719648255,-0.032614986415,0.10357918334999999
686.0,-0.01197009886,0.09950954976000001,-0.03413618256,0.10588217650000001
687.0,-0.0098156119955,0.09408435976,-0.034816941775,0.1008127803
688.0,-0.0108804129,0.09374318619,-0.038205762965,0.10182064402999999
689.0,-0.00621749345,0.09100495803,-0.04008404198,0.09964009709499999
690.0,-0.007150921173,0.089076271145,-0.03874815098,0.09741597585
691.0,-0.005852392158,0.08796036443,-0.04190988236,0.09762475194
692.0,-0.0060591944175,0.08520883099000001,-0.042932256555,0.095609010615
693.0,-0.0044973515235,0.0840445701,-0.043123287095000004,0.09457988052499999
694.0,-0.0045397896975,0.08920542581999999,-0.041428471635,0.09859460907
695.0,0.00013962807050000008,0.07718053511,-0.040731357415,0.087325471275
696.0,-0.0008344378020000001,0.079508472175,-0.04339323785,0.090638944675
697.0,0.00022799554991,0.07854649627499999,-0.04025572798,0.088279221045
698.0,0.000421475329815,0.07681979629999999,-0.039933092095,0.08660402248
699.0,0.0022639673773999997,0.07642474809,-0.038333878615,0.08557301264
700.0,0.0030127721325,0.07223714995,-0.039310194514999994,0.08230627894
701.0,0.005187976483,0.07202735529,-0.03729323904,0.081349642515
702.0,0.0056572098065,0.068354186015,-0.036813072285,0.07787838533
703.0,0.008711686344500001,0.064943917865,-0.036938265755000005,0.075235283565
704.0,0.0101934682465,0.063331485095,-0.036224022630000005,0.073669785625
705.0,0.012192229995,0.060136245435,-0.034284585755,0.07029142104
706.0,0.013384345414999999,0.0564418542,-0.0356350991,0.068086124325
707.0,0.01523628473,0.053090155665,-0.032815934295,0.06426992865
708.0,0.019220210595000002,0.050966515734999995,-0.030530326485000002,0.062446220285
709.0,0.0196060867,0.04790944234,-0.028661468939999997,0.059607357585
710.0,0.02390613482,0.044956701625,-0.02458467124,0.056580831240000004
711.0,0.025613951735,0.040657329945,-0.02618136239,0.05478885842
712.0,0.026757753105,0.041144867345,-0.02228653921,0.054351343164999996
713.0,0.028510295485000003,0.03805480305,-0.02089542355,0.052426649125
714.0,0.03023829676,0.034663182935,-0.02047598471,0.0503977831
715.0,0.032243759875,0.033784294830000006,-0.017447261715,0.050031559035
716.0,0.032165699549999996,0.03226518247,-0.02145775372,0.050579145675
717.0,0.033313628365,0.03058153978,-0.017966282365000003,0.04871183664
718.0,0.03333639811,0.028874204405,-0.01762689592,0.04750804924
719.0,0.03347253505,0.0278245948,-0.01865043956,0.04735459401
720.0,0.03523670307,0.0272749164,-0.0186871423,0.048351717165
721.0,0.035460485185,0.027781881459999998,-0.017306772329999998,0.048283072270000005
722.0,0.03543101407,0.024434419290000002,-0.01620939327,0.0460164577
723.0,0.036858955725,0.024271138664999997,-0.01475308402,0.04653920364
724.0,0.039168657499999995,0.02383850203,-0.013685161735,0.04786629237
725.0,0.038400809164999994,0.021051696119999998,-0.01495508955,0.046280052155
726.0,0.040208235120000005,0.022436339715,-0.014413942645,0.048266902449999996
727.0,0.03874507832,0.02472350105,-0.0080239190685,0.04673475866
728.0,0.036421297369999994,0.02707552061,-0.006958659563,0.045921043844999995
729.0,0.0368819949,0.029469720385000002,-0.0060227768695,0.047623678924999996
730.0,0.036529413535,0.030598559764999998,-0.005621246564,0.04798987033
731.0,0.036029052384999996,0.03076916661,-0.002611140074,0.04747346378
732.0,0.034120653045,0.03241512342,-0.002357200371,0.047122979695
733.0,0.03491191317,0.031981621175,-0.0009961233464,0.04736225501000001
734.0,0.03514376674,0.03394122378,-0.00046894239604999995,0.04888842594
735.0,0.03672293344,0.03216012176,0.001404160112,0.04883894895
736.0,0.035795811535,0.03461137202,-0.00042387440799999986,0.049871566660000005
737.0,0.035223598425,0.03360139736,0.00098946783895,0.04869022688
738.0,0.037471612075,0.033366453945,0.005034118755,0.05055768814
739.0,0.034910216334999994,0.033678357044999996,0.0025664619010000002,0.048580944475
740.0,0.036345667644999996,0.03246892354,0.0058030175810000004,0.049900673065
741.0,0.036289224815,0.032855114935,0.0033253043755,0.049357331585
742.0,0.035993017485,0.03309225966,0.006475445948500001,0.049641709765
743.0,0.038807047345,0.02978787771,0.0078675934695,0.049794583515000004
744.0,0.035920655324999995,0.036011883354999996,0.006250199163,0.051298302170000004
745.0,0.035938294425,0.03366799256,0.0074964013305,0.049826219955
746.0,0.037079854365,0.033639690895,0.0096136895835,0.051007146505
747.0,0.038689976915,0.029964755985,0.009504944271,0.04992169655
748.0,0.038519089165,0.035577349245,0.009162442182500001,0.053437635845
749.0,0.03766737342,0.02981210926,0.008444343906,0.048840189285
750.0,0.038812246775,0.03100529094,0.0087541703795,0.05053074227
751.0,0.03937853815,0.03110357002,0.0094068987885,0.051125053655
752.0,0.042679715595,0.028330608255,0.01650836656,0.05419648863
753.0,0.03903254923,0.03068144118,0.006133098637,0.05002505003
754.0,0.038554183925,0.020827306352999998,0.0182231184445,0.05557560383
755.0,0.05146662465,0.02582672733,0.01569478096,0.060343471085
756.0,0.03772485384,0.025931197580000002,0.006567240065,0.050093159745
757.0,0.048475120329999996,0.01938108355,0.016890934975,0.055057713915
758.0,0.047299898775,0.01812856983,0.017907232649499998,0.054093941955
759.0,0.0489860122,0.02170559827,0.0092735220795,0.055767879365
760.0,0.04704879526,0.015337676599999999,0.019428573545,0.05319093525
761.0,0.04660705531,0.01315394219,0.014061594870000001,0.0504324092
762.0,0.055079378435000007,0.013619638525,0.018748644115,0.059777132645
763.0,0.051647991520000006,0.0124195663035,0.013053683941,0.054888860005
764.0,0.050079097575,0.0122200444,0.01252502972,0.053049388305
765.0,0.052817784335000006,0.010602429385,0.014566231079999999,0.055807229325
766.0,0.051503874850000006,0.011005858604,0.015085373545,0.054803738985
767.0,0.05284292163,0.0105125198455,0.012760298462,0.055428780755000004
768.0,0.0516866806,0.010196626888,0.0109380366365,0.053843174704999996
769.0,0.052927534285,0.010240119850999999,0.014015942165,0.055715271165
770.0,0.05336350727,0.009813164192500001,0.01325251077,0.05587255985
771.0,0.05218220346,0.0091120945005,0.013228269184999999,0.054615576065000004
772.0,0.0524813688,0.008381375986,0.012909628895,0.054735146245000005
773.0,0.05388315849,0.0077480308094999995,0.01233928747,0.055831939225
774.0,0.053374702965,0.009364728612,0.012923223675000001,0.055712352615
775.0,0.053020889094999996,0.008184674505,0.012455351835,0.05509183155
776.0,0.0525275618,0.007944428465,0.01253365723,0.054597075055
777.0,0.05377011806,0.0093894531615,0.012773762825,0.056086685639999995
778.0,0.05346238254,0.0068465334705,0.010917590009999999,0.0550029224
779.0,0.052287946345,0.0061794234900000005,0.0116425372665,0.05404383447
780.0,0.05677207284,0.003464566995,0.016170805945000002,0.059261962375
781.0,0.055692017585,0.004277891762,0.014172143075,0.05767375326
782.0,0.05483266033,0.004422168942,0.016368972095,0.057410660815
783.0,0.055973280125,0.00122786942645,0.01515300204,0.05803534128
784.0,0.055883863585,0.0022591634885,0.01360666573,0.057568572245
785.0,0.056096025790000004,0.002400167374,0.01539462819,0.058238905885
786.0,0.057941051630000004,0.00221365266,0.01463599066,0.059832956295
787.0,0.0558047714,0.002445110679,0.01275405283,0.05729587193
788.0,0.051798889815,0.006377890601,0.0007856837749999996,0.054212472525
789.0,0.055455383065,-0.00018644592340000003,0.014331845155,0.057380580119999997
790.0,0.060532279645000006,0.00012580685750000005,0.019438449320000002,0.063675356745
791.0,0.06979213099,-0.011265824665,0.04086954661,0.082964806465
792.0,0.06371211017,-0.003460663119,0.025295863204999998,0.06864565759499999
793.0,0.061564622765,-0.0040725226439999995,0.02132135738,0.065287192385
794.0,0.061583970175,-0.0024725868595,0.021051079865000003,0.06513898164500001
795.0,0.062504270325,-0.0023811295279999997,0.02041879235,0.06587980494000001
796.0,0.06013956459,-0.0022793306496,0.01914926294,0.063234477895
797.0,0.06094799948,-0.004786066395499999,0.01493744615,0.06293972784
798.0,0.06040187527,6.351681300000001e-05,0.016106930845,0.062521256145
799.0,0.058894669445,-0.0007312401778,0.01572336496,0.06096901674500001
800.0,0.059989698164999994,-0.0003826085432,0.01573241955,0.06202942768
801.0,0.05908908937,0.0018237694924,0.014758627405,0.060942447639999994
802.0,0.057002877345,0.0018094782093500002,0.014134057355,0.058823645785
803.0,0.05783702852,0.00148245260995,0.013846930399999999,0.059578315140000004
804.0,0.059027194875,0.0017903199792999999,0.013718970965,0.060632295825
805.0,0.058092890065,-0.0013604808380000002,0.0110924833845,0.059341492645
806.0,0.0585036283,0.0014552286616,0.012270045261,0.059888636120000005
807.0,0.059043005285000005,-0.0012918219147,0.011216594835,0.06012103938
808.0,0.0572686161,0.0008907373165,0.012119840605000001,0.05859561193
809.0,0.0571445978,0.0005475917461,0.009341189270000001,0.05791482909
810.0,0.057992644715,-0.00146799508285,0.011510219648,0.059176331425
811.0,0.055955715545,0.00081036676375,0.0094046688215,0.056746582675
812.0,0.05667566257,0.0007502952218,0.008625950111,0.05735523354
813.0,0.056192848805,0.0007665298441500001,0.006030606119,0.056531435035
814.0,0.057452447975,0.0022601838846499998,0.0081489333995,0.058145805085
815.0,0.057102257085,-0.0005226952188,0.00873690246,0.05781648137
816.0,0.05725356812,0.0023619311695000002,0.0087027277775,0.05799294147
817.0,0.056387486560000005,0.003323683493,0.009194174789999999,0.057269839815
818.0,0.055201837475,0.002773345849,0.0074387317324999995,0.055827384130000005
819.0,0.05615515146,0.0042818243015,0.006476467777999999,0.056729934790000006
820.0,0.05347032787,0.0054230918775,0.0046798391115,0.05401652247
821.0,0.05670210116,0.005602974015,0.01019270295,0.05788275034
822.0,0.054447907805,0.003828498844,0.003834768836,0.054721596994999996
823.0,0.054326744325,0.0020574746763,0.006299649696,0.054794158095
824.0,0.055643325184999995,0.006269854692499999,0.014168972967000001,0.059350097739999996
825.0,0.0389338574,0.012487336676,-0.0177890286055,0.050901589245000003
826.0,0.065785693355,-0.00603710684585,0.032739691185,0.07453462489
827.0,0.062375006725,0.0030348941004999996,0.002760284200000001,0.06844441149
828.0,0.055934396139999995,0.006094418159,0.012526649173,0.058267012145
829.0,0.026743587939999997,-0.0164131200055,-0.0009108528800000001,0.09373010211999999
830.0,0.10017582279500001,0.03213230163,0.02598693817,0.10948259915
831.0,0.034015850300000004,0.0018003290369999992,0.0018107580049999995,0.04421368748
832.0,0.051834752735,0.008642597479000001,0.008347479335,0.053283947644999996
833.0,0.05193786437,0.007650141541,0.0090823467905,0.05331073888
834.0,0.05167213135,0.007817784652999999,0.0086295902905,0.0529732539
835.0,0.051091118755,0.009409155986,0.010422085779,0.053041379385000004
836.0,0.051271127005,0.0100126230365,0.011129104435,0.053417397325000004
837.0,0.058452791925000004,0.004520757585000001,0.021953639165,0.070912731325
838.0,0.048152955945000006,0.00925341941,0.0009472417700000001,0.049950126815
839.0,0.048715893770000004,0.009273798677,0.004524283112,0.05079699623
840.0,0.053958444265,0.007637329257249999,0.0068903832885,0.05724064128
841.0,0.053707237559999996,0.0088914309005,0.010612114554,0.056202028735000006
842.0,0.0467331488,0.0018333199444999998,0.012533099739,0.04961759167
843.0,0.05526488995,0.0110194447835,0.0007242392835000002,0.057132721535
844.0,0.05166833639,0.0105661823815,0.0111723509015,0.0540863175
845.0,0.05072520344,0.011012256146,0.0030531437169999997,0.05227550461
846.0,0.05235362433,0.0054969846325,0.0085561231785,0.05342206039
847.0,0.04888150182,0.012981862075,0.0065139960124999995,0.052385875495
848.0,0.049917960920000004,0.0099245364525,0.005757091141245,0.051579210055000005
849.0,0.048385130535,0.013682948965,0.0060325093325,0.05093447625
850.0,0.051671563825,0.0099394927145,0.0069084394308,0.053638901655
851.0,0.041936265055000005,0.0026521078454999998,0.01701222171,0.046304892965
852.0,0.057828366615,0.020402007399999998,-0.0049026552905000005,0.063150959745
853.0,0.049464480685,0.013394062115,0.0083484381045,0.051966523555000005
854.0,0.05118528759,0.013016400774999999,0.006862580351,0.053382335399999994
855.0,0.0488424,0.01264393887,0.006026865621,0.05081114383
856.0,0.050701923489999995,0.01274797345,0.006457346809,0.05268841868
857.0,0.04920351142,0.014702181710000001,0.0069342345395,0.05183718313
858.0,0.049890203844999995,0.015080680005,0.0074451866000000005,0.052663652455
859.0,0.049300288575000004,0.012427265135,0.00501417803,0.051189359155
860.0,0.048144139265,0.01593633403,0.005533445175,0.051077165615
861.0,0.0476120713,0.013856605535,0.0056081347559999994,0.049912554575000004
862.0,0.048588109175,0.016639650885,0.004560597473,0.05159211192
863.0,0.048042231465,0.016085994085,0.006186871524,0.051277666855
864.0,0.046740228514999996,0.01670149952,0.0056957885315000005,0.04996911099
865.0,0.047400711649999996,0.014866167445,0.0041927617484999995,0.049872586245
866.0,0.048137724519999994,0.015916791715,0.004611645959,0.05093199318
867.0,0.04677176335,0.015227972515,0.004330584060499999,0.049381620535
868.0,0.048552091475,0.013966871410000001,0.0038140169535000002,0.05067563535
869.0,0.04882649786,0.01549851516,0.0016312886116,0.051272493285
870.0,0.05064600806,0.010573285027000001,0.0031937721195000003,0.051892130005
871.0,0.050121100069999994,0.011265996643,0.0045242014225,0.051635265075
872.0,0.049909941065,0.0093200776695,0.002551015506,0.050871322015
873.0,0.051182312385,0.01057932715,0.00321666511525,0.05241251485
874.0,0.05005855206,0.013780952885,0.0035936041525,0.052082455245
875.0,0.048514245080000004,0.014110093805000001,0.001969097165,0.050568487100000004
876.0,0.048502854474999996,0.013718129715,0.003947086969999999,0.050569936255
877.0,0.04916149173,0.01445601393,0.003963900581,0.051417431454999996
878.0,0.04626844993,0.015008982825,0.00202076476725,0.048720816545000004
879.0,0.046488683595,0.016191123585,0.0008162469415,0.049237619834999996
880.0,0.046197004985,0.016953245085,0.00234549160825,0.049322661079999996
881.0,0.045990185525,0.017543905585,-0.000205083923,0.04927679052
882.0,0.04456622227,0.01673991917,0.0046026802280000004,0.047833397949999995
883.0,0.04532091437,0.02341959489,-0.0007054937984999998,0.05114031977
884.0,0.045217252405000005,0.017155805245000003,0.006489952202,0.04882933864
885.0,0.044526627449999995,0.021143050265,0.0039968986547499995,0.049608050965
886.0,0.044088263985,0.021309730305,0.00229321492095,0.049089082585
887.0,0.043325655214999995,0.01927565596,0.00061410812335,0.047432068075
888.0,0.04443264779,0.020951806185,1.0499191650000037e-05,0.04913324105
889.0,0.04324754329,0.02028504589,0.001391534139,0.04778880052
890.0,0.04350237871,0.020606958045,0.00074720393645,0.048145435465
891.0,0.045290336875000003,0.020661348615,0.0030857161474999997,0.049888563685
892.0,0.043780121455,0.02103768,0.0007843366223499999,0.048590124875
893.0,0.044435657389999994,0.019580989535,-0.0006007727455,0.048614483375
894.0,0.043384477054999995,0.019275713285000003,0.0009100574914,0.04750290038
895.0,0.044382854735,0.018844423805,-0.001967810204,0.04826511824
896.0,0.04510420051,0.018015873345000002,-0.0025642147354,0.04875081093
897.0,0.044026839555,0.018295645415,-0.005298890138,0.04802340461
898.0,0.044849892485,0.01691919365,-0.002760686914,0.0480289485
899.0,0.045358244825000005,0.017163154394999998,-0.0040711109995,0.048723736655
900.0,0.044677577335,0.0155233085,-0.003652937627,0.047458539595
901.0,0.04484795488,0.01576127871,-0.004538916915,0.04778446884
902.0,0.046869302934999996,0.01563770755,-0.0030160812551,0.04962420211
903.0,0.0471150981,0.015207965864999999,-0.0026450123635,0.049586071955000005
904.0,0.04650732589,0.015596691055,-0.0022759341055,0.049126607005
905.0,0.046117276474999996,0.01537906571,-0.0015646461175000002,0.048796288675
906.0,0.045942777219999995,0.01536021131,-0.0030801713245000003,0.04856024398
907.0,0.046798402579999995,0.016049552170000002,0.0003635577989,0.04950145691
908.0,0.046814465225000004,0.01472440113,-0.0008446775945000001,0.049101618575000006
909.0,0.047231618205,0.014482303475,0.00026942909205,0.049421266105
910.0,0.048865886314999996,0.01008136795,-0.0017989675525,0.04993406207
911.0,0.049972162315,0.0094558763855,-0.001580012256575,0.05090934584
912.0,0.05040511424,0.008554350383,-0.0005520574136750001,0.051133942685
913.0,0.05060433805,0.009422300756,0.0007892322319999999,0.051549433475
914.0,0.05006167631,0.0083745656995,0.0011530007030000002,0.05085734719
915.0,0.052281399755,0.0076522912525,0.00011718221444999998,0.052850502445
916.0,0.052135557585000006,0.007262654585,0.0018880902975000001,0.052678150515
917.0,0.05275871026,0.0091562524435,0.0009131201136,0.053559252360000004
918.0,0.050413736015,0.0084852041905,0.003396446933,0.051292190755
919.0,0.050222772835,0.0112971302,1.0543619000000031e-05,0.051509104774999995
920.0,0.048896607130000005,0.01296636122,-0.001666870639,0.050618526535
921.0,0.046780322075000005,0.015545573775,-0.0040355748335,0.04949652946
922.0,0.04647340631,0.01448670035,-0.0061620595525,0.049069125575
923.0,0.045233051355,0.015836788045,-0.006273929113,0.0483991363
924.0,0.04472966341,0.01675605634,-0.008453953117,0.0485074998
925.0,0.045133728945,0.015448899815,-0.008754866886,0.048548195424999996
926.0,0.043638882535,0.019114427585,-0.008323945723,0.048371391735000005
927.0,0.0425116884,0.020495310614999998,-0.0101998213575,0.04832660244
928.0,0.04138323884,0.021000068645,-0.010893441581,0.047810617624999996
929.0,0.040490105309999996,0.022921005105,-0.011833910329999999,0.048039292995
930.0,0.03763431945,0.026958656560000002,-0.01116996759,0.047652760710000006
931.0,0.037748282835,0.026240555415,-0.009510980660000001,0.046959984295
932.0,0.037783968045,0.026858353879999998,-0.0093962949795,0.047434054680000004
933.0,0.036736175664999995,0.02710571976,-0.007926200343000001,0.04662911844
934.0,0.036562822915,0.028559211454999997,-0.01468272252,0.048669934789999994
935.0,0.03711520135,0.02683960266,-0.0077074155895,0.04660353187500001
936.0,0.03646909549,0.027860314405,-0.0094253891755,0.04689886847
937.0,0.037449163355,0.028928394335000003,-0.011224412619999999,0.048634649025000004
938.0,0.03508283531,0.03104450168,-0.008703299603,0.04767065067
939.0,0.034669110405,0.03005899361,-0.008983507349,0.046768127189999995
940.0,0.035508632995,0.030307901555,-0.010021267742,0.04775695212
941.0,0.035046920795,0.03237642288,-0.01076055071,0.048914787495
942.0,0.0350299524,0.02957173137,-0.010140975155,0.04696642604
943.0,0.03492518406,0.028108964384999997,-0.011019952114999999,0.046172436824999996
944.0,0.037219092620000005,0.02601368918,-0.0101371085355,0.04657769125
945.0,0.03865565605,0.02924917144,-0.013809651535,0.050419451605
946.0,0.042563487855,0.0169437806245,-0.0092386580565,0.047580282125
947.0,0.039025458045,0.018090517065,-0.01388834388,0.045364086125
948.0,0.04297827328,0.01916684042,-0.014119598391,0.049696694294999996
949.0,0.042540230835,0.016263153255,-0.015564842360000001,0.04813588699
950.0,0.040297061205,0.021604045895,-0.014809577005,0.04819249152
951.0,0.044694585849999996,0.009634107546500001,-0.01391502467,0.04794819753
952.0,0.042744235605,0.0159734466475,-0.01727302329,0.049624472835
953.0,0.045627870259999995,0.010430177293,-0.011999774914,0.048609530785
954.0,0.04509440929,0.00809365285035,-0.01397598189,0.04860400849
955.0,0.046717539025000004,0.014778717179499998,-0.01596592839,0.05199073344
956.0,0.045601007464999996,0.010740234503,-0.015476089365000001,0.049574932259999996
957.0,0.045582709119999995,0.0096435777395,-0.012926089955000001,0.048423492775
958.0,0.04603376448,0.01126990052,-0.01762129234,0.05056310981
959.0,0.04659658765,0.008515254294000001,-0.015895450815,0.04998055463
960.0,0.04659689148,0.010222595402999999,-0.016593978114999998,0.05052002415
961.0,0.045756256775000004,0.009829823024,-0.016217655325,0.049569468415
962.0,0.046962646285,0.0061597034685,-0.01447791663,0.049572369840000005
963.0,0.047848058045,0.009417548462,-0.01694987577,0.051904686219999996
964.0,0.047771069705,0.0086488861,-0.01547230157,0.051047418835
965.0,0.047577423679999994,0.0055449260684999994,-0.014561250915,0.050150225665
966.0,0.04993584652,0.0063687070325000004,-0.016228131585,0.052948901595
967.0,0.04884550131,0.0069468820094999995,-0.01409137841,0.051413175675
968.0,0.048354421184999996,0.005062674091,-0.0159330851,0.051306667405000006
969.0,0.049994513585,-0.0024601815901999996,-0.01660012772,0.0527726251
970.0,0.050543928285,0.0029879959889999998,-0.01711620326,0.053825073815
971.0,0.051222486195,0.0062428199195,-0.01353175831,0.053408886835
972.0,0.04987323545,0.002167717622,-0.017498652725,0.053114784265
973.0,0.050926892244999994,-0.005534590255,-0.02395860785,0.05660469602
974.0,0.051122963145000005,0.001185110229,-0.024608419815,0.056828658275
975.0,0.053186795235,0.0036008128524999995,-0.012213598135,0.054692400905
976.0,0.052451949275,-0.00013323626100000005,-0.01299014706,0.05408912289
977.0,0.052859855625,0.00032343701405,-0.014736601459999998,0.0548904455
978.0,0.052841717795,-0.0017239540815,-0.015495244725,0.05520279783
979.0,0.05337402652,-0.00120383851665,-0.01670087181,0.055955826939999995
980.0,0.050944611604999995,0.00248824249275,-0.017910325365,0.054098654285
981.0,0.04852439172,0.006063952446,-0.017358920035,0.051902627130000004
982.0,0.048271826399999995,0.008122378728,-0.017891383545,0.05213324556
983.0,0.046072109604999995,0.01155588096,-0.01761947655,0.050675422235
984.0,0.042028175254999994,0.015165734064999999,-0.01819758417,0.048321023805
985.0,0.039663790554999995,0.017425958074999998,-0.0211763321,0.048241591915
986.0,0.04004421499,0.019043194739999998,-0.022036782845,0.049522445005
987.0,0.04019141578,0.0209350155,-0.020923911524999998,0.04994239965
988.0,0.040701894904999994,0.01661925442,-0.020059734614999998,0.048393690924999996
989.0,0.04200662082,0.01335101629,-0.022398556385,0.049560437134999996
990.0,0.04579968668,0.013167138555,-0.01912815851,0.05138785947
991.0,0.046017661705,0.0101567053075,-0.019523444615,0.051058375775
992.0,0.04956916304,0.007713566633,-0.02168366261,0.05465146164
993.0,0.04826726901,0.004189810911,-0.02082363321,0.05274614257
994.0,0.049044633399999996,0.00510400588,-0.02312929926,0.054508560145
995.0,0.05105379976,0.00195821532435,-0.023012946835,0.056058976685
996.0,0.05185273579,-0.0001778069489,-0.01937119774,0.055379798955000004
997.0,0.053185602865,-0.0024209937805000003,-0.02115654042,0.057305688665
998.0,0.054001753785,-0.003997592295,-0.023544415745,0.05910785596
999.0,0.055423573065,-0.0058271058165,-0.022097495,0.060035682980000005
1000.0,0.054453181765,-0.0035697079581,-0.02305851929,0.059311566760000003
1001.0,0.05362955558,-0.007409350907499999,-0.026618079175,0.06042822535
1002.0,0.053629859405,-0.006122143707,-0.023188111070000003,0.058823420885000005
1003.0,0.05532401562,-0.0079710390285,-0.021811669345,0.06001336141
1004.0,0.05632274298,-0.0087219533675,-0.02413624139,0.061900239895
1005.0,0.05688354256,-0.009733515943,-0.02524974329,0.06301749357
1006.0,0.055668451014999995,-0.0102000721605,-0.021350606355,0.060617581165000003
1007.0,0.05795280339,-0.009407097994999999,-0.02276600086,0.06297172118
1008.0,0.057401015410000006,-0.0111119225075,-0.02272093574,0.06274333091
1009.0,0.058807075865,-0.01264892047,-0.021048689385,0.06375406356999999
1010.0,0.059997517380000004,-0.0084242784965,-0.02252333281,0.064911288005
1011.0,0.05633640368,-0.015506936295,-0.02048550507,0.0619712314
1012.0,0.05865278963,-0.01135337812,-0.023740035205000003,0.064286917385
1013.0,0.05869643737,-0.011656344150000001,-0.023821558,0.06441175232999999
1014.0,0.057959928970000005,-0.01386793308,-0.024047196035,0.06427479152
1015.0,0.058907447335,-0.012884844155,-0.024694491404999998,0.065165855395
1016.0,0.05673595195,-0.01213039282,-0.02317652699,0.062497368080000004
1017.0,0.056332431015000003,-0.009106734553,-0.02388713997,0.061864077834999996
1018.0,0.050578902665,0.012699475953999999,-0.030219706050000003,0.064643264665
1019.0,0.081875597025,-0.011596822929999999,-0.007451757555000001,0.098358438375
1020.0,0.069373682445,-0.093534148255,-0.089102513095,0.14882177544
1021.0,0.032865330365,-0.008492346999999997,-0.014823400300000001,0.15695902714999999
1022.0,0.0471302206,0.045079997600000005,-0.066548418221,0.23319218435
1023.0,0.07252197241,0.008608528850000005,-0.078902395345,0.23093702075
1024.0,0.05431877033,-0.03485635029,-0.0380990211855,0.101646169085
1025.0,0.051927167405,-0.01553076656,-0.0575265815,0.08669586099
1026.0,0.0520121756,-0.0006175806242,-0.05217207975,0.07367206881
1027.0,0.05165534067,-0.003781755514,-0.031413491085,0.060659928434999996
1028.0,0.050595314995,-0.00098111119325,-0.02848298555,0.058083914125
1029.0,0.05000589846,-0.002539090339,-0.026559486635,0.0567171869
1030.0,0.049499506655,-0.00252477612585,-0.023759558885,0.055102052265
1031.0,0.052182650605,0.001406109184,-0.025431786605,0.0590924761
1032.0,0.051122309635,0.00101967128765,-0.022171866425,0.05576706086
1033.0,0.050534567005,0.0010532497834999997,-0.02073155533,0.054876083209999996
1034.0,0.049313370285,0.0006915937629999999,-0.02596813249,0.056151886045
1035.0,0.042267240395,-0.030445270995999998,-0.07110820452,0.097170628185
1036.0,0.047978204450000006,-0.006614364600000006,-0.033175933245,0.50952937015
1037.0,0.087533506245,-0.0289922092425,-0.011077378257500001,0.09829757288999999
1038.0,-0.027558666870000005,-0.004907555199999997,-0.15029027275,0.1773645048
1039.0,0.126998680595,-0.05040787429,0.0694594616805,0.1692985945
1040.0,0.057321613655,-0.04352525448,-0.015047187496500001,0.07409861638000001
1041.0,0.21705757635,0.21556009825,-0.29727240795,0.82274181895
1042.0,0.11221716593,-0.04951512784999999,-0.12084978294999998,0.36749362225
1043.0,0.1038936946,-0.027447409279999994,-0.059235150825,0.2484465134
1044.0,0.08580756296,-0.04084125354,-0.012349067224999996,0.150596109545
1045.0,0.07737989649999999,-0.037567277115,-0.0032567830350000004,0.09046208001
1046.0,0.06521194965,-0.017321619675,-0.021482676040000002,0.07096617439
1047.0,0.06172483074,-0.011239993729,-0.01570049848,0.06472801613000001
1048.0,0.060819200224999995,-0.0069341041235,-0.01625790509,0.06336741809999999
1049.0,0.05916005278,-0.009252267162045,-0.0051716350925,0.062352760685
1050.0,0.06923353271999999,-0.0343945779,-0.038469056062999996,0.09789161555
1051.0,0.047025950989999996,0.0461186924205,0.0049238471485,0.07138824924500001
1052.0,0.051787424685,0.0084904724195,0.0022778115199999995,0.054280253395000005
1053.0,0.05144494409,0.0068364097615,0.0011915536314,0.051914600495000005
1054.0,0.05352225344,0.011324508925,-0.0069751636160000005,0.055159713294999996
1055.0,0.049598748809999996,0.010055565678589999,-0.0073010541654,0.0526188705
1056.0,0.0485744886,0.011630232318,-0.011331402333,0.0512833485
1057.0,0.04895835831,0.013731194225,-0.012867506015,0.052512511149999996
1058.0,0.045759507135,0.011454724125,-0.01479549926,0.049494352925
1059.0,0.047376394115,0.010616709205500001,-0.0151346607,0.05089291194
1060.0,0.0466553579,0.009472374706,-0.01868316677,0.05114204751
1061.0,0.046169064465,0.009054310254000001,-0.018809122669999997,0.051223786485
1062.0,0.04416231152,0.008540007508,-0.019956251794999998,0.0492453574
1063.0,0.044577933900000005,0.009480256982000002,-0.02310621279,0.051175380045
1064.0,0.044540763955,0.008272090379,-0.022425037965,0.05060428551
1065.0,0.045809816125,0.0095452470635,-0.024125534395000002,0.052658768235
1066.0,0.0451790678,0.004730798742,-0.02373130594,0.05129061924
1067.0,0.04694366576,0.0061148920124999995,-0.019161678245,0.051246068889999996
1068.0,0.045174579199999995,0.0118078816195,-0.024913822185,0.053071935295
1069.0,0.046443350475000006,0.004454363024,-0.025405853915,0.053313814795
1070.0,0.046870443715,0.009032474914,-0.022798296694999998,0.05290053317
1071.0,0.046589897745,0.005415656742,-0.02386787855,0.052651266249999995
1072.0,0.048574872685,0.006575010559499999,-0.024517455485,0.05485131707
1073.0,0.045706744615,0.0050809036455,-0.023686399895,0.051737211025
1074.0,0.047194362265,0.0072775420545,-0.024523652389999998,0.053755984315000005
1075.0,0.045716489974999996,0.006823379643,-0.024994161205,0.052565863145
1076.0,0.044140745610000004,0.0107302311755,-0.027494760245,0.053149599170000006
1077.0,0.04472281873,0.01250063623,-0.023088593754999998,0.051966712115
1078.0,0.043218244155,0.0051015064825000005,-0.02590508288,0.050647956265
1079.0,0.044244952165000004,0.0047703075757,-0.026851638179999998,0.05224293965
1080.0,0.04801605658,0.016519828825,-0.02291156357,0.055847757595
1081.0,0.044981259935000004,0.00315956017525,-0.027107668835,0.052737832175
1082.0,0.044646099825,0.0080207690245,-0.026999165720000003,0.052823405465
1083.0,0.0448681851,0.007399995362,-0.024557271015,0.051684961055000006
1084.0,0.047052143075,0.0112990219435,-0.026269891815,0.055205917335
1085.0,0.043581837785,0.0055907865834999996,-0.026908754585,0.051618238785
1086.0,0.0449700585,0.005986929711,-0.02729553643,0.052977704695
1087.0,0.04327411373,0.006422879766000001,-0.027613699485,0.05191011132
1088.0,0.04539953649,0.012247818675,-0.02562121203,0.054189492785
1089.0,0.046956174215,0.00422791526615,-0.025480884585000002,0.053716056725
1090.0,0.04517062373,0.00377414840125,-0.027670136584999998,0.05319397291
1091.0,0.04667001034,0.0087577646975,-0.027065583215,0.05468394456
1092.0,0.045620784809999995,0.0075950343994999996,-0.027127775805,0.053667076035
1093.0,0.04488316429,0.008326847832500001,-0.026040827145,0.0528656664
1094.0,0.04529210823,0.008835406549,-0.02978265534,0.05492218164
1095.0,0.04393847781,0.0077815548460000005,-0.02650570085,0.051973162205
1096.0,0.044195451475,0.00942821103,-0.02628933094,0.052345588545
1097.0,0.045284076915,0.01782653821,-0.0231441595,0.0541679096
1098.0,0.043688085135,0.004752066555,-0.02386636516,0.052596048975000004
1099.0,0.03873614699,0.006582107474000001,-0.03001417642,0.051297324535
1100.0,0.04088283183,0.015987130279999998,-0.036850282355,0.060661283829999996
1101.0,0.042703947145000004,0.01191621849,-0.02311120012,0.0500564936
1102.0,0.04394617091,0.011437615290000001,-0.025867078850000003,0.052265093845
1103.0,0.04121366385,0.010168296553,-0.02363535428,0.04860328671
1104.0,0.043172704665,0.011936867185,-0.02497218829,0.051306141449999995
1105.0,0.044647773735,0.012700665465,-0.02514255437,0.052829648034999996
1106.0,0.0430451895,0.0107199182945,-0.024897676415,0.050875029540000005
1107.0,0.042763777919999996,0.011312760035000001,-0.026235103745000002,0.05143092733
1108.0,0.043005657734999994,0.01147391962,-0.02837292318,0.05279609541
1109.0,0.044146655885,0.004866316564,-0.02049762371,0.04904974358
1110.0,0.04372123082,0.010198767999,-0.031122312639999997,0.054637961560000003
1111.0,0.04318525898,0.007253006679,-0.03016991013,0.053211351069999996
1112.0,0.04354159518,0.010305817905999999,-0.029638392495,0.05367904448
1113.0,0.042669878514999995,0.0091328377845,-0.02911516415,0.052467675475
1114.0,0.042816970385,0.008444302345500001,-0.030983854015,0.05355228474
1115.0,0.042591663405,0.0057643399695,-0.02998635629,0.0524361807
1116.0,0.04354291367,0.007645982565,-0.02968379727,0.053273915125
1117.0,0.042860864629999995,0.0069434482034999995,-0.02999479462,0.052775091329999996
1118.0,0.045085128264999996,0.0066214844585000005,-0.029107703215,0.054140954025
1119.0,0.045890427440000006,0.0054302862465,-0.03053470473,0.05539922394
1120.0,0.04440366968,0.005912535357000001,-0.0295124022,0.05364632046
1121.0,0.045012038065,0.0052762293115,-0.030247918865,0.05449594867
1122.0,0.044014892895,0.005889120697999999,-0.029514655095,0.053322031709999995
1123.0,0.044376233625,0.0076753619575,-0.028630263725,0.053417528625
1124.0,0.043143468585,0.005748237196000001,-0.02810993319,0.051826906025
1125.0,0.04454174422,0.0053923194725000005,-0.029928480315,0.053957466195
1126.0,0.046689030985000005,0.004391227426,-0.029355759874999998,0.05537299886
1127.0,0.045762092525000006,0.0028640894769999996,-0.02995179179,0.054788577874999994
1128.0,0.047009200435,0.003502851926105,-0.027108717895000002,0.05448884102
1129.0,0.04765166612,0.001065471611,-0.02904214561,0.05581453875
1130.0,0.048248162375,0.0011518814195349998,-0.028013402540000003,0.055816712965
1131.0,0.048048909905,0.0016935571589999998,-0.028128443645,0.05570670065
1132.0,0.04852910962,0.0005761169860500001,-0.026437236835000003,0.05531039509
1133.0,0.048161594919999995,0.0004119105462,-0.027034899665,0.055232369840000003
1134.0,0.047232655795,0.0011357757802,-0.025527504665,0.05373599481
1135.0,0.03788810581,0.008457060167,-0.04741171531,0.06203952999
1136.0,0.05705159268,-0.005971520578500001,-0.009762359340000002,0.06338418802
1137.0,0.046297972640000004,0.00047136583748,-0.03253923344,0.056593509895000005
1138.0,0.04708285242,0.00150009744315,-0.030770522365,0.0562743296
1139.0,0.04574949808,0.0021490581245500002,-0.027671199974999998,0.05352285569
1140.0,0.046385010165,0.0012906868665,-0.02775009439,0.05411697888
1141.0,0.04635446133,0.006109050529500001,-0.02555958983,0.053290999265
1142.0,0.044986258725,0.007263365423,-0.026622005980000002,0.05278353898
1143.0,0.04573177299,0.012422524304,-0.027988457285,0.05518529622
1144.0,0.040939251725,0.0036286387199999997,-0.027005483009999998,0.04980215871
1145.0,0.04455585206,0.009702818058499998,-0.030741948395,0.055601964485
1146.0,0.041363862769999996,0.011927213544999999,-0.02853349231,0.051647698539999995
1147.0,0.041009808130000006,0.013599282189999999,-0.029366184545,0.052253847374999995
1148.0,0.040359087555,0.015879191825,-0.029125889774999997,0.05228771678
1149.0,0.039008581375000004,0.01635501187,-0.028990070995,0.05130012773
1150.0,0.037863272340000004,0.01742661159,-0.027374344865,0.04987052839
1151.0,0.03758367798,0.01936883306,-0.027811914365,0.050619829035
1152.0,0.038295272660000004,0.019799812979999998,-0.02274287713,0.04874867726
1153.0,0.03801817196,0.01950701652,-0.022131914750000002,0.04816299522
1154.0,0.0367604932,0.018389005955000003,-0.020013055775,0.045786342285000003
1155.0,0.02729678613,0.02604290233,-0.03335300535,0.05258837754
1156.0,0.0313116965053,0.00032991194500000057,0.0012959866225,0.054633559430000006
1157.0,0.06276380069455,-0.0009054040500000027,-0.02159947417,0.20295834024999998
1158.0,0.0349737847355,0.09470379772500001,-0.0043084807265,0.10276146513
1159.0,0.025815737999999998,0.0131293208275,-0.010491845352500001,0.039708147145
1160.0,0.042940782305,0.013066520584999998,-0.0134909868825,0.060389963765
1161.0,0.0188977079905,0.018400293380000002,-0.02560590035,0.038377957845000005
1162.0,0.041332648954999995,0.027960141285000004,0.003372120796,0.050376476394999994
1163.0,0.0124337716,0.01528765997,-0.02640105575,0.032944301
1164.0,0.0206458878855,0.042348751725,-0.026307066059,0.057207154535
1165.0,0.03477916991,-0.0022670400319949996,-0.0011663547115,0.035034257580000006
1166.0,0.03400994575999999,0.035939962605,-0.017614828875,0.05265457614
1167.0,0.0258801261635,0.017920351624999997,-0.005105085035,0.0547734027
1168.0,0.040067403210000005,0.032751900119999997,-0.0106207176975,0.053670929660000005
1169.0,0.02850642027,0.024494370449999997,-0.009931217755,0.03908554441
1170.0,0.031536831505,0.028796923704999998,-0.0067045349845,0.043272183214999996
1171.0,0.03132458904,0.026054275735,-0.008316480491,0.041606620489999996
1172.0,0.031821780085,0.026217888855000003,-0.009928130770500001,0.04242863744
1173.0,0.03428943694,0.025472529375,-0.011515297265,0.044269774515
1174.0,0.02935354424,-0.0044696059100000005,-0.0026088542139,0.044599080195
1175.0,0.044967668020000004,0.05364560676,-0.03157650085,0.076944982065
1176.0,0.0225516330505,-0.009301206065,0.0003058996664999998,0.032111445645
1177.0,0.04442757447,0.06952417947,-0.0268692486185,0.08906636764
1178.0,0.032833405715,-0.011099970115000002,-0.0142554673315,0.046671100539999996
1179.0,0.03647964914,0.027964331785,-0.008164745245,0.046743588084999996
1180.0,0.032813123900000005,0.023745118555,-0.0107966114055,0.042463849139999996
1181.0,0.03488093439,0.023633797885000002,-0.005702777959,0.043365561255000004
1182.0,0.033485719945000006,0.0207993601,-0.013288855225,0.041604300535
1183.0,0.035194270629999996,0.02077709482,-0.0108408324095,0.04242460238
1184.0,0.037493309835,0.02584959453,-0.0095150364495,0.046526987054999996
1185.0,0.03762096831,0.02218362535,-0.01260879825,0.045518172440000004
1186.0,0.03407224727,0.015854432879,-0.007904370738,0.04065735459
1187.0,0.040422587169999996,0.013019834583999999,-0.0176047911555,0.047671203675
1188.0,0.03837838338,0.020611274661,-0.0095606390015,0.046722403515
1189.0,0.0375129668,0.022279496755,-0.019069286505,0.05157546167
1190.0,0.03786763482,0.014253929573500001,-0.0103339404335,0.043131951030000004
1191.0,0.035616972725,0.022415593565,-0.01734081373,0.04597154657
1192.0,0.03377550681,0.009259501661000001,-0.015184427955,0.038807262045
1193.0,0.035061985975,0.027553931775,-0.0241173898495,0.05452504391
1194.0,0.044989291254999994,0.012816334281499999,-0.002726340255000001,0.051423091815
1195.0,0.03636968709,0.014310057113,-0.0177186843075,0.046637894134999996
1196.0,0.03452866258,0.01866314292,-0.0171054833635,0.045831193485000005
1197.0,0.03147986128,0.02516354989,-0.02729394278,0.0486738659
1198.0,0.036473647144999996,0.01716776338,-0.0102041279465,0.04224580622
1199.0,0.035728247535,0.02037638857,-0.0134895881335,0.043642298395
1200.0,0.034816225205,0.010233785368,-0.0137723870005,0.041007386405
1201.0,0.03456945551,0.033004706205,-0.0102366874825,0.049800298435
1202.0,0.028464985295000002,0.022831932515,-0.019439598699999998,0.042147353449999994
1203.0,0.03436980749,0.03306590706,-0.005953998995,0.04830542735
1204.0,0.034401542965000004,0.025506534945,-0.008694027178999999,0.0437280212
1205.0,0.034388157424999996,0.02719843826,-0.0099022310465,0.04495040414
1206.0,0.033086188875,0.02347798679,-0.013280124535,0.042692453015
1207.0,0.03367714747,0.026403004825,-0.013514167935,0.044877672405
1208.0,0.030082262085,0.024626293955000003,-0.014400147225,0.04148966928
1209.0,0.031984819945,0.02597358416,-0.01901435994,0.045532451395
1210.0,0.030397031465000002,0.02374101977,-0.015781431539999998,0.041742777655
1211.0,0.032233957194999996,0.027302283665000003,-0.02147135709,0.04755638425
1212.0,0.0327420745,0.024298798285,-0.01718237568,0.044269155175000005
1213.0,0.02994755829,0.02345220745,-0.019806015615,0.042903751095
1214.0,0.032539508605,0.025163125680000002,-0.022187976365,0.046762341355
1215.0,0.03192371081,0.023883674635,-0.018699696619999998,0.044038448075
1216.0,0.032305837815,0.023060948465,-0.01973758026,0.044421700845
1217.0,0.031135712515,0.024199584795,-0.020119463635,0.044323212735
1218.0,0.030695027355,0.022950757109999997,-0.017935709165,0.04237482015
1219.0,0.03253721558,0.023673151939999998,-0.022127087929999997,0.045976257325
1220.0,0.031782512015,0.023365273105,-0.020510530574999998,0.044582802044999995
1221.0,0.032749664415,0.02410037703,-0.022471818555,0.04645833372
1222.0,0.032141273090000005,0.023684238725,-0.017798007235,0.044005949635
1223.0,0.03056137835,0.022683269925,-0.022997110625,0.044598703445
1224.0,0.03234809255,0.02488671289,-0.021082806745000002,0.046097400805
1225.0,0.03184021601,0.0244614426,-0.020014213755,0.04495603084
1226.0,0.031490460794999994,0.022725541855,-0.02252134218,0.04490491823
1227.0,0.03004050036,0.02430205438,-0.01964122445,0.04341700926
1228.0,0.03224702744,0.02392459368,-0.022644532125,0.046163437089999995
1229.0,0.03147266691,0.023428273989999998,-0.021480927605,0.044733169385
1230.0,0.032986963915,0.024295542189999998,-0.01926259718,0.045356751095
1231.0,0.02974389174,0.01786234954,-0.02019581853,0.04014515803
1232.0,0.030982165775,0.024621037195,-0.02142156117,0.04512494048
1233.0,0.03012500982,0.02184111036,-0.02204346128,0.04377026832
1234.0,0.032121879825,0.027261926409999998,-0.01749682977,0.04578537511
1235.0,0.032186594745,0.023862441215000002,-0.020344102764999997,0.045204302495
1236.0,0.032417920914999995,0.02233593385,-0.024336959965000002,0.04649319568
1237.0,0.03014546934,0.028368288405,-0.02015837628,0.04656653691
1238.0,0.033416585219999996,0.027390014825,-0.018134064495,0.046873954620000005
1239.0,0.039957378105,0.0310379722915,-0.01585715872,0.06010060965
1240.0,0.032371641925,0.0011789821199999998,-0.028383605814999997,0.0465718845
1241.0,0.04055197688,0.020322152779500002,-0.014706187340499999,0.05262464566
1242.0,0.04205607565,0.0100859769325,-0.020717453221900002,0.055208853865
1243.0,0.0215055891,0.03322062324,-0.03750311825,0.056679735025
1244.0,0.03467535317,0.0101376101365,-0.018508653177,0.046419134195
1245.0,0.039366476835000004,0.0205908954,-0.0212177871365,0.062449037025
1246.0,0.0365301243725,0.012137764900999999,-0.002216581999999998,0.057776026445
1247.0,0.032357029620000005,0.02145118133,-0.023203222109999998,0.046859752555
1248.0,0.02776982588,0.03698831104,-0.02683357487,0.054971615700000004
1249.0,0.022101299992,0.0113842078505,-0.0133699953795,0.040195887995
1250.0,0.055567695465,0.020344968385000002,0.003708272635,0.06311765956000001
1251.0,0.0010143314059999995,0.037157811505,-0.04384382171,0.058953404249999994
1252.0,0.042396658765,0.01825830922,-0.00044532136499999923,0.053060090115
1253.0,0.0240572108255,0.029307935955000003,-0.021747210957,0.061446201325000005
1254.0,0.0325413029,0.022232529855000002,-0.009456686110000001,0.052378540965
1255.0,0.044261129465,0.0205296314805,-0.0022010051900000008,0.060101860235
1256.0,0.01156262245,0.035774922075,-0.03686300578,0.059187828995
1257.0,0.026519742765,0.021043097275,-0.011395793366,0.036717554165
1258.0,0.037137042425500005,0.026174029005000002,-0.00925520367,0.05839585060000001
1259.0,0.02785497166,0.022797904015000002,-0.01879541611,0.041313054805
1260.0,0.024948160245,0.02687465729,-0.023463835954999998,0.045324595865
1261.0,0.026631573635,0.02814953948,-0.019426396605,0.04353674154
1262.0,0.027369796075,0.023763428365,-0.0185114693,0.04094771036
1263.0,0.027050509435,0.026376027375,-0.016599545865000002,0.041293106685
1264.0,0.02459023039,0.027930630045,-0.015932795605,0.04049630599
1265.0,0.02940773417,0.02977824127,-0.01511745441,0.04449826862
1266.0,0.022014262465,0.03024047513,-0.01647849847,0.040882774805
1267.0,0.02182856178,0.031438334585,-0.01491980132,0.04108086645
1268.0,0.01829046891,0.03555922861,-0.015435176049999999,0.04289776064
1269.0,0.019766959655,0.03402718358,-0.014366111559999999,0.0419705233
1270.0,0.02002880026,0.035921841965,-0.014113928889999999,0.043493543975
1271.0,0.016997821505,0.033891625635,-0.015530256365,0.041006364145
1272.0,0.019575589455,0.033959831685,-0.014339244460000001,0.04177258684
1273.0,0.019012691765,0.03502008093,-0.013233839805000001,0.042026408050000005
1274.0,0.01868809104,0.03548287085,-0.013791775965,0.042410959275
1275.0,0.017710356325,0.03385283337,-0.01443145563,0.04084136184
1276.0,0.016218037975000002,0.03644592446,-0.015799264115000003,0.043039129514999996
1277.0,0.01674916006,0.03736268189,-0.012987684927,0.043359835145
1278.0,0.01508314501,0.03750482082,-0.014773309935,0.043084294610000004
1279.0,0.014812413190000002,0.03951525981,-0.013294864390000001,0.044428792499999994
1280.0,0.014481437855,0.03925916896,-0.012980138004999999,0.04383454574
1281.0,0.012426823730000001,0.04020060507500001,-0.01176912805,0.043699103909999995
1282.0,0.0209283428,0.0481109649105,-0.0115929620475,0.066880198395
1283.0,0.0105401565415,0.042498956375,-0.0124970060815,0.045562243414999995
1284.0,0.003763141877,0.04056805672,-0.0132745539145,0.04872839284
1285.0,0.01306813716865,0.05689570706,-0.00761847199,0.05980360759
1286.0,0.012645670105,0.043983891185,-0.013116835301499999,0.04810280256
1287.0,0.0070691289445,0.04605530173,-0.01145445183,0.047983096335
1288.0,0.012088562300000001,0.05340971747,-0.0081997597465,0.05566985306
1289.0,0.0074616720215,0.043552062845,-0.011416778851,0.04584671538
1290.0,0.009779686015,0.051904472184999995,-0.010964503885,0.053953644255
1291.0,0.007697916732,0.048082863885,-0.011128235955,0.050000685419999996
1292.0,0.016347817498,0.062554286945,-0.010077406746,0.066008929095
1293.0,-0.002370237654,0.02022900434,-0.01637702348,0.028416918425
1294.0,0.014418631882,0.05354093587,-0.01082956505,0.057010880535
1295.0,0.009101907732,0.05299404923,-0.0094030723015,0.054607961834999996
1296.0,0.011804519475,0.050197371840000005,-0.008628074026999999,0.05228594986
1297.0,0.007708390125999999,0.04741270991,-0.0103057276185,0.049304222475
1298.0,0.009456134351000001,0.048843236954999994,-0.0094344193955,0.050682268465
1299.0,0.01046175799,0.04960267561,-0.009455254402,0.05156816502
1300.0,0.009822823563,0.047423028524999994,-0.007779653068,0.04905358233
1301.0,0.0064813289925,0.033939624395,-0.0117157851045,0.041527416745
1302.0,0.023906455845,0.0537307984,-0.0059124379035,0.059615957654999996
1303.0,0.012758773604999999,0.046827145655,-0.012904015285,0.05022186884
1304.0,0.01482855609,0.0458579582,-0.008521353743,0.048948171885
1305.0,0.01673679492,0.0437847591,-0.008574685222,0.047728867065
1306.0,0.017941693959999998,0.04289730081,-0.0099967710635,0.04756759467
1307.0,0.020489021995,0.04090631241,-0.01123805326,0.04711458155
1308.0,0.016195514728,0.0435469608605,-0.009394245588,0.05096383371
1309.0,0.022918626089999998,0.02997842815,-0.01203473209,0.039824534585
1310.0,0.023937130799999998,0.036039325139999995,-0.009962765489,0.044630558269999995
1311.0,0.02106231856,0.032204388625,-0.011799701249999999,0.040342090965
1312.0,0.02159174954,0.03258143658,-0.01163181594,0.040802295035000005
1313.0,0.019630874305,0.036617626230000005,-0.010558936423000001,0.042889459165
1314.0,0.011079797220499999,0.022298397018,-0.014491497075000002,0.031032187335
1315.0,0.03622592584,0.060397140159999994,-0.003908975447,0.077281755955
1316.0,0.005309569906,0.04255427562,-0.01424184246,0.04539326599
1317.0,0.014425728795,0.049111366185000005,-0.011414654935,0.052462729065
1318.0,0.006272984675000001,0.05308457215,-0.0088305911945,0.056562499925
1319.0,0.022080668492650002,0.041055605585,-0.012488349906,0.0600245185
1320.0,0.0029761066505000003,0.03376795129,-0.013699048874000001,0.03816882766
1321.0,0.014721213825,0.054106195375,-0.005046412240000001,0.062035570260000006
1322.0,0.0119672899015,0.026119684300000005,-0.0207829377345,0.067245735855
1323.0,0.0100888145485,0.061255832472,-0.018631934839,0.072296847825
1324.0,0.015502057885,0.031164495730000002,-0.0202372434695,0.079100601655
1325.0,0.0106612283015,0.050042598315,-0.018280947120499998,0.076753736035
1326.0,0.0091892376195,0.051563940679999996,-0.019514751182999997,0.083696679395
1327.0,0.0045773609245,0.070561406735,-0.0223655181835,0.0750467576
1328.0,0.0097729445215,0.05303693454,-0.021399000665,0.06056044122
1329.0,0.008602589911,0.03427397048,-0.01812621374,0.04057528084
1330.0,0.011831193092500001,0.04334214207,-0.015435697714999998,0.047723843995
1331.0,0.011216885765,0.046856181095000005,-0.018124869454999998,0.051520006815
1332.0,0.0092186628725,0.04333365214,-0.01674244436,0.047434019790000004
1333.0,0.01410624725,0.04254043148,-0.01781974799,0.0482308816
1334.0,0.0095337016795,0.042467788425,-0.017938665734999998,0.04708501794
1335.0,0.012678821525,0.043261685529999996,-0.016128147065,0.047893915654999994
1336.0,0.009965971427500001,0.042756102015000005,-0.018752969335,0.04774341914
1337.0,0.010661084987,0.041947575405,-0.020381168095,0.047857672795
1338.0,0.011689283465,0.043133293285,-0.018979030145,0.048563198315
1339.0,0.010688928048,0.04051646364,-0.018861640125000002,0.046003801735
1340.0,0.012668479980000001,0.04196884895,-0.01866103907,0.04765714546
1341.0,0.011408978260000001,0.042122722444999997,-0.018076847765,0.04725442507
1342.0,0.0101094747115,0.04261407773,-0.018941944750000002,0.047736318085
1343.0,0.013559331945,0.042962904275,-0.015808626824999998,0.047765658084999996
1344.0,0.012023629545000001,0.042499472304999994,-0.015592110735000001,0.04685443934
1345.0,0.011506661155,0.043729944320000005,-0.015728120125,0.047894686515
1346.0,0.013650193089999998,0.042291856020000004,-0.014398563605000001,0.046715633775
1347.0,0.0104914010795,0.03718157872,-0.015706158671,0.042580633704999996
1348.0,0.009506666905,0.052041302760000005,-0.01369422205355,0.0582472218
1349.0,0.015802237885,0.045184966605,-0.016276653445,0.05077349546
1350.0,0.0105209352495,0.04973774056,-0.017053028970000002,0.05363707197
1351.0,0.0099320231795,0.048609291,-0.01674560444,0.05237305556
1352.0,0.011197888045,0.049385996145,-0.015973750475,0.053106522045
1353.0,0.011274297395,0.04906755793,-0.01365130091,0.052206667479999996
1354.0,0.011570670974999999,0.04675928356,-0.014996447135,0.050451661825
1355.0,0.011810475604999999,0.048198002435,-0.01760631458,0.052658766595
1356.0,0.011641468145,0.046415232245,-0.015713497785000002,0.05037446154
1357.0,0.01127542671,0.047001106055,-0.013289114625,0.050183919300000004
1358.0,0.013162156960000001,0.05577551812,-0.0122732010365,0.05870671845
1359.0,0.009459350319,0.026293186085,-0.013467057724999999,0.03159369075
1360.0,0.026845988735,0.050439383510000005,-0.013800592651,0.059839027165
1361.0,0.009096874542,0.037342566325,-0.0124141046028,0.04161553654
1362.0,0.022839860650000002,0.04272104165,-0.008633770762999999,0.04936041819
1363.0,0.017423023,0.04040236268,-0.011405275025,0.045487739
1364.0,0.020970265039999998,0.04006085662,-0.010241998699,0.0464173966
1365.0,0.021288382235,0.037337865619999994,-0.011305568535,0.044443113495000006
1366.0,0.023745880985000002,0.036720055695,-0.0100720611305,0.04487585367
1367.0,0.02258972021,0.03679117389,-0.009793796723,0.04426967799
1368.0,0.025118468999999997,0.035662603939999996,-0.011976972204999999,0.045248275135
1369.0,0.025582021349999998,0.03312617924,-0.011393963241000001,0.043491666685
1370.0,0.023832190475,0.02752781421,-0.017592403085,0.041054506160000004
1371.0,-0.01294212967,0.0198970143415,-0.045731397529999995,0.09685408403
1372.0,0.082336564005,0.048825787025,0.01911868688,0.14543963982
1373.0,0.012579722685,-0.07223578560000002,-0.048984473005,0.3850167516
1374.0,0.07628584805,0.28282124805,-0.041827111295,0.30784838540000004
1375.0,0.10979347210000001,-0.18996194300000002,0.024777517569999997,0.32240949205
1376.0,0.021165905999999998,0.0062915180550000005,-0.022954033269,0.0738177151
1377.0,0.028648014614999995,0.054666135055,-0.0175159751,0.12703819202
1378.0,0.015227548306500001,0.019199710941499998,-0.029398854425000003,0.04380276707
1379.0,0.03731401815,0.016586332305,-0.02439016676,0.04773471265
1380.0,0.035370420865,0.020393391355,-0.023401580305000003,0.047096154555
1381.0,0.034362372355000004,0.020668262085,-0.022269999324999998,0.04588392661
1382.0,0.032150984055,0.024903113754999998,-0.02073626033,0.04568006064
1383.0,0.031579705355,0.010570992004999998,-0.021213688355,0.07669240438
1384.0,0.030181974315,0.076356490465,-0.017629770805,0.085359077615
1385.0,0.02985213976,-0.016376956125,-0.01980898078,0.09051372115
1386.0,0.02228805547,0.035190372484999996,-0.018271671835,0.046017323
1387.0,0.02266201358,0.03670169429,-0.017587162086000002,0.047958529555000004
1388.0,0.02359613494,0.035650147075,-0.012369475155,0.044620580255
1389.0,0.02024713071,0.03191741645,-0.018082851195,0.042556618685000006
1390.0,0.022833646555,0.034740899310000004,-0.021901028555,0.047076244225
1391.0,0.02107094607,0.036063700005000005,-0.013189820875000001,0.043806044749999995
1392.0,0.020253270285,0.036325993485,-0.017807041755000003,0.04524359639
1393.0,0.01998249834,0.037145830445,-0.01592164863,0.045150469565000004
1394.0,0.016820587814,0.0307654404475,-0.0111572241,0.04670071484
1395.0,0.03683084323,0.0370631668665,-0.02221126204,0.060848588205000005
1396.0,0.020773443175,0.03086629345,-0.012602430805000002,0.05394718823
1397.0,0.017573806641,0.029568056795,-0.0094273382465,0.052548250054999995
1398.0,0.017392967170000002,0.046621977174999996,-0.0139182864975,0.0540693595
1399.0,0.018102400674999998,0.03875940973,-0.013253535464500001,0.045304019975
1400.0,0.019356353265,0.046163779040000005,-0.009521300709,0.05099330208
1401.0,0.014087260996,0.03092320062,-0.015504700594,0.040825463735
1402.0,0.01503970364,0.03703495692,-0.02424584085,0.04675084511
1403.0,0.02314870256,0.05033080301,-0.0038188609680000003,0.056279849155
1404.0,0.017321252784999998,0.03698909067,-0.01466714858,0.044617291995
1405.0,0.015639891655,0.03691288769,-0.010212960395500001,0.042208861255
1406.0,0.02269532551,0.041257535165,-0.011389410152,0.049707531875
1407.0,0.01549382592,0.033861455145,-0.012879967175,0.040199086805
1408.0,0.025994743055,0.04720640065,-0.007278509426499999,0.054604415914999996
1409.0,0.0110962955415,0.02507532572,-0.019784905445,0.03454827398
1410.0,0.024142259144999997,0.05104191042,-0.0058245104,0.057327065479999995
1411.0,0.012091050234500002,0.026933484865000003,-0.01994227867,0.03587889045
1412.0,0.021226120855,0.046895317310000004,-0.008875068727500001,0.05247084304999999
1413.0,0.016672148794499998,0.029233854030000003,-0.019491926979999998,0.040413071620000005
1414.0,0.02036912541,0.045058070559999996,-0.0102104653,0.05161535683
1415.0,0.016736708935,0.02415461856,-0.020115506735,0.03730130002
1416.0,0.022556402545,0.051014176274999996,-0.0052740151085,0.05611680768
1417.0,0.0151831324,0.025079573549999998,-0.02402860103,0.038598956535
1418.0,0.025026157515,0.045136629624999994,-0.007110892109,0.0545179435
1419.0,0.019508461125,0.034242120355,-0.0157350708565,0.04386129541
1420.0,0.01902940219,0.03438388667,-0.01528702939,0.042210482905
1421.0,0.020027034635,0.03535610092,-0.01490937092,0.043548294635
1422.0,0.01916013332,0.03638498157,-0.014890937860000002,0.043740296525
1423.0,0.018849497125,0.035491515555,-0.015878177165,0.043274216549999994
1424.0,0.019679509385000002,0.033450825825,-0.01361564723,0.04127059791
1425.0,0.01942300006,0.055015821490000005,-0.015046824915,0.06105908249
1426.0,0.010553238251,0.011716639259,-0.020458165033,0.0370695838
1427.0,0.03656343057,0.027470093015000002,-0.0113308333785,0.04947561084
1428.0,0.017479070285000002,0.029892806567500003,-0.016552183414999998,0.042125854855
1429.0,0.014543447002,0.03832983429,-0.0227141784775,0.0544130616
1430.0,0.02808641248,0.056593428934999995,0.0065789201660000005,0.06415394587
1431.0,0.01775352827,0.040928210810000004,-0.007254993013,0.045213756065
1432.0,0.019947856455000003,0.041121702055,-0.009533476676,0.046702563404999994
1433.0,0.012403417667,0.022479993195,-0.00440827464,0.07949160582
1434.0,0.0216951650055,0.038844899465,-0.022189207435,0.05373452443
1435.0,0.054215051040000004,0.073547803345,-0.015003899474,0.15817333514999998
1436.0,-0.006724848327,0.004527900359,-0.01263891714,0.01501558168
1437.0,0.013216473005,0.030637730375,-0.012665139325,0.035772502265
1438.0,0.01739480732,0.03733818091,-0.01277431745,0.04315483849
1439.0,0.01673708155,0.036108488529999996,-0.013069153265000001,0.04202276254
1440.0,0.017404569875,0.0191306736723,-0.012316689701,0.033010153245
1441.0,0.021373688525,0.052674389975,-0.0072866783276000005,0.057684640834999995
1442.0,0.017049013305,0.04396851645,-0.01381963193,0.049155760225
1443.0,0.016307706745,0.041351692535,-0.009832600451500001,0.04554322424
1444.0,0.02189012952,0.04305050932,-0.011633793675,0.04970688589
1445.0,0.017312178135000002,0.03546800058,-0.0097057789295,0.040768378705
1446.0,0.01995455209,0.0397568702,-0.013560317948,0.04685818857
1447.0,0.02060270448,0.037802094415,-0.011338665496,0.04461101318
1448.0,0.020109188015,0.031829295475,-0.01418627958,0.04049335258
1449.0,0.024795203965,0.043225639165,-0.010642596033,0.05103230216
1450.0,0.0201015981,0.03542435283,-0.014503695970000001,0.04326619088
1451.0,0.02121920738,0.03799019132,-0.014807523315,0.04597252963
1452.0,0.021864997955,0.03634947407,-0.013986837935,0.04467534457
1453.0,0.022557119110000003,0.03573103356,-0.01451497479,0.044692439795
1454.0,0.023582290795,0.03303907866,-0.0093135783735,0.041647196785
1455.0,0.02170638363,0.03569597893,-0.016233944405,0.04493570761
1456.0,0.025227284535,0.036665676585,-0.014389013155000002,0.04694047435
1457.0,0.024899588224999998,0.027499443749999998,-0.012304175516,0.03961196805
1458.0,0.027875671945,0.030240704435,-0.01483083622,0.04374051142
1459.0,0.026744579675,0.028526157495000003,-0.01471627809,0.041935960375
1460.0,0.02653370156,0.029232736175000003,-0.015266063975,0.042359612425
1461.0,0.027602337545,0.030410571785,-0.01448798301,0.04358029907
1462.0,0.026582755110000002,0.029609835725,-0.013927940135,0.042182166105
1463.0,0.02740700615,0.03089620024,-0.01259167938,0.043177862445
1464.0,0.022950321435,0.03170280644,-0.01439768079,0.04372593824
1465.0,0.029674172295,0.0015517650454999997,-0.0178260538075,0.04003780021
1466.0,0.015220548845000001,0.042548995925,-0.005929889263499999,0.04716642114
1467.0,0.100027905445,0.074448134095,0.020254197529999997,0.132612562335
1468.0,-0.04013227864999999,0.058202920905000004,-0.05014604387,0.142417779395
1469.0,0.0115324347665,0.057425894734999997,-0.01079851462,0.060079203665
1470.0,0.01760527842,0.05413532254,-0.007160864306,0.05737470655
1471.0,0.015994525285,0.05266049424,-0.010884262314,0.05630100248
1472.0,0.019784128685,0.05343968158,-0.00901896899,0.057948739949999994
1473.0,0.022037955155,0.046098072384999994,-0.00490407839869,0.051612841369999995
1474.0,0.020753075375,0.04229046874,-0.011429327435,0.048475836300000005
1475.0,0.025046720225,0.04520583314,-0.011375553115,0.0529205277
1476.0,0.02693376576,0.03912224666,-0.007477721767,0.049137677135
1477.0,0.026156028754999998,0.04231205758,-0.0086022860855,0.050518633359999995
1478.0,0.026579269715,0.03856892235,-0.0099645999105,0.04799484775
1479.0,0.026780671895,0.037940902725,-0.011276583253,0.049042700035
1480.0,0.02641049729,0.040874611335,-0.009915007497,0.0497174538
1481.0,0.02496677388,0.04063445128,-0.0073877233745,0.048283718665
1482.0,0.022243238285,0.042705449075,-0.01358858522,0.05004782263
1483.0,0.023558300015,0.040798144655,-0.014302738055,0.049253106035
1484.0,0.02387555159,0.042133316224999995,-0.01332593919,0.050230587320000006
1485.0,0.023214575455,0.042923246395,-0.01331897269,0.05059062071
1486.0,0.025527699575,0.040619730055,-0.013202931255,0.04975993475
1487.0,0.024592787115,0.039018366865,-0.013156604964999999,0.048074396105
1488.0,0.02433141084,0.039211061285,-0.014860443485,0.048516334925
1489.0,0.027966848385,0.038920964860000004,-0.0129170554365,0.049982441015000004
1490.0,0.027394910435,0.037279221485,-0.017144251265,0.049409146585
1491.0,0.027023600779999997,0.033638378139999994,-0.01732125279,0.04664929784
1492.0,0.028357757679999998,0.03471603718,-0.01349792615,0.046895111595
1493.0,0.026528261355,0.03130783849,-0.016473015270000002,0.044225675315
1494.0,0.032224888275,0.03463094299,-0.012703851335,0.04899068661
1495.0,0.031200037615,0.031902391405,-0.013565997485,0.046696094034999996
1496.0,0.03201775353,0.031418127295,-0.014821704245000001,0.04726013765
1497.0,0.034031998935,0.030043315044999998,-0.0131685287025,0.04736630174
1498.0,0.032358864035000004,0.030167161365,-0.013182030325,0.046188053980000005
1499.0,0.033692075069999994,0.02934024469,-0.01293666797,0.04655798753
1500.0,0.033353257580000004,0.02963968519,-0.013219092785,0.046569414315
1501.0,0.03259864574,0.030122292585,-0.01416516225,0.04675097637
1502.0,0.031494920725,0.03175490972,-0.013163227515,0.046627174765
1503.0,0.031823889665,0.032363977485,-0.012590878255,0.04745139877
1504.0,0.02571786593,0.03533399042,-0.01813346544,0.0473151358
1505.0,0.03284606895,0.034847226915,-0.0101269318055,0.0495516634
1506.0,0.027853922594999997,0.032915587760000004,-0.015332093080499999,0.047968541079999996
1507.0,0.027446709889999997,0.03266960915,-0.0159961949,0.046049528105
1508.0,0.027431111585,0.04011501789,-0.01487977369,0.050916447225
1509.0,0.026575291315,0.042377070589999996,-0.01306585131,0.052177584230000004
1510.0,0.028070728184999998,0.03815655607,-0.01426554088,0.049536998959999995
1511.0,0.026237740725,0.040350580430000005,-0.015818847985000002,0.05070101455
1512.0,0.028140166735,0.036021290489999996,-0.016469505505000002,0.048635064395
1513.0,0.026418746445000002,0.03627464117,-0.016259743809999998,0.047756413525
1514.0,0.02647152043,0.036131441715000004,-0.01674251172,0.047842610509999994
1515.0,0.02689456649,0.03688238472,-0.015291741559999999,0.04814837828
1516.0,0.027603094245,0.038435451055,-0.0149313811,0.04967961821
1517.0,0.027455176885,0.036787883395,-0.013960089785000001,0.0479796942
1518.0,0.025782701235,0.03855061254,-0.015869953795,0.04901897928
1519.0,0.02770222748,0.03765691149,-0.014303077715,0.048909242655000004
1520.0,0.027264574855,0.037513608845000004,-0.016263961545,0.04920329728
1521.0,0.026062949105,0.03710872929,-0.01584145722,0.048042144605
1522.0,0.02612432767,0.03900630555,-0.014862214844999999,0.04926985763
1523.0,0.02736315203,0.03921063707,-0.014725096205,0.050035804375
1524.0,0.025080742995000002,0.04256274835,-0.017150498325,0.052344815615
1525.0,0.02772999029,0.03305247566,-0.0118695912415,0.04609974641
1526.0,0.02863160228,0.03591819032,-0.0125347808125,0.047906609805
1527.0,0.029518888595,0.04066643899,-0.013219435304999999,0.0519680973
1528.0,0.027956294729999998,0.033460462270000005,-0.0098046384345,0.04486991102
1529.0,0.028486797705,0.037047637349999996,-0.012927791095,0.048572580170000004
1530.0,0.031106172610000003,0.03435478817,-0.010606195679000001,0.04756799267
1531.0,0.03171803213,0.03545526282,-0.008473862313,0.04833853958
1532.0,0.02928974653,0.03452491348,-0.01211672209,0.0468833905
1533.0,0.030316597849999998,0.034576626945,-0.010178248285999999,0.047227745434999996
1534.0,0.029454844384999998,0.03905852921,-0.0089971465555,0.050049921295
1535.0,0.029629767850000002,0.042038740375,-0.009617996172,0.052716048365000004
1536.0,0.02703755957,0.03467965259,-0.008069716525499999,0.046898788885
1537.0,0.02727361511,0.043294877075,-0.0040068647175,0.051482333150000004
1538.0,0.02079894736,0.07274139204,-0.01211253589,0.07661997033
1539.0,-0.039270123892,0.034988844185,-0.02775549877,0.08525461428
1540.0,0.09580901320000001,-0.0022877518000000013,0.017492508700000006,0.5276977939999999
1541.0,0.061267509649999996,0.01501963395,-0.04984191425,0.6812732735
1542.0,-0.05016471342,0.076194585615,-0.04260226927499999,0.11374486216499999
1543.0,0.084068675515,-0.014703649250000006,-0.031016057505000007,0.2617227314
1544.0,0.041634886950000005,0.006264357159999999,0.010407237855000001,0.05307537643
1545.0,-0.007514658150000006,0.08763322415,-0.13119364420000001,0.35630570345
1546.0,0.08422389618000001,-0.0851789873,0.0942643969,0.3323099704
1547.0,0.026292635762500002,0.026930779095000003,-0.0023172277699999994,0.10365947251499999
1548.0,0.022150468195000002,0.04416421473,-0.03145318072,0.058921694469999994
1549.0,0.0308139150105,0.037629848050000005,0.014974731199999999,0.09261695965
1550.0,0.03712081927,0.018731801842,0.005550467667,0.043667576944999995
1551.0,0.029395993875000002,0.03638049871,0.004314814135000001,0.053520772004999995
1552.0,0.02472003858,0.04090283848,-0.020554423565,0.053418744350000005
1553.0,0.02334367854,0.030864178135000003,0.0068994611615,0.0407919817
1554.0,0.03199273662,0.020719052605,0.0491861551965,0.07330953063000001
1555.0,0.02163171698,0.04636400605,-0.018375389144999997,0.06295542494
1556.0,0.023638859739999997,0.03946790883,0.02084182765,0.0517677407
1557.0,0.026247606474999997,0.042386179639999993,-0.003982434455,0.05300602543
1558.0,0.0005034567299999973,0.065150582545,-0.05807422678499999,0.145322804595
1559.0,0.042816546175000005,0.009301263405000003,0.0331712906,0.19817191325
1560.0,0.028542713135,0.034328389715,0.0202966964295,0.05699053018
1561.0,0.02408286405,0.0425648866,0.0061945929315,0.049751233049999996
1562.0,0.023009384045,0.042909562760000006,0.00070751273555,0.048703235305
1563.0,0.025179297240000002,0.04011780392,-0.00031386954300000004,0.04945181154
1564.0,0.022465936945,0.0536922985,-0.008073756727499999,0.061175136155000004
1565.0,0.0323756260545,0.0218054710055,0.0286478706142,0.065260052515
1566.0,0.020943218805,0.041677210469999997,-0.009360561105,0.0610758034
1567.0,0.020827690431999998,0.04747203622,-0.01775288685,0.05758099271
1568.0,0.02548780666,0.037879994230000005,0.008899391284999999,0.04691064083
1569.0,0.024412773130000003,0.0414307446,-0.0012795725890499998,0.04812381916
1570.0,0.0253689706,0.04019285465,-3.823163615000001e-05,0.047537918715
1571.0,0.02428711532,0.04283640951,-0.0027408318189999998,0.049337355725000004
1572.0,0.02472782913,0.03796105269,0.001733929639,0.04533777197
1573.0,0.021705925025,0.040120939630000005,0.00430588244085,0.046007012580000006
1574.0,0.02844105757,0.0364538698,0.0006447561149999998,0.048825035735
1575.0,0.02934113897,0.036781537445,0.0015321233094999997,0.047619891395
1576.0,0.025245032554999998,0.036896039685,-0.0004695126069999998,0.046036704410000004
1577.0,0.02576631183,0.03937308648,-0.00310869172835,0.04802709273
1578.0,0.026525974065,0.035286868740000005,0.0009872883898500002,0.044198987185
1579.0,0.028355172295,0.037195084635,-0.0015401578567499998,0.046940063195
1580.0,0.02657871366,0.03639805755,-0.0016061855330500002,0.04515421468
1581.0,0.02610378216,0.038569191785,0.0005236190573999999,0.046654489415
1582.0,0.031225266629999998,0.030838908995,0.014297781362,0.04704976551
1583.0,0.034491802192,0.004054023660000001,-0.026249702795000003,0.06864516131500001
1584.0,0.026814115678,0.07101186591,0.019596395800000003,0.09252195096499999
1585.0,0.026208441590000003,0.051601391486499996,0.00947018057,0.089016414335
1586.0,0.027230420235,0.04366111342,0.0035139057450000004,0.07636905955
1587.0,0.031641273095,0.033698908284999995,0.005826124114700001,0.04755679527
1588.0,0.021533925165000002,0.045666891825,-0.01487780742,0.05301557553
1589.0,0.03282576994,0.0263684947865,-0.0063094022215,0.05033550663
1590.0,0.024951829085000002,0.046268495795,-0.0022164329535000003,0.052759201850000007
1591.0,0.02619253946,0.03187840062,-0.02253913033,0.049439749165000005
1592.0,0.03483675925055,0.03668088508,0.020188565395,0.08005861323999999
1593.0,0.023069690625,0.038460146939999995,-0.01437411135245,0.04975151413
1594.0,0.02921356648,0.03688208089,-0.0045945973125000004,0.04728863591
1595.0,0.02831530804,0.03955670625,-0.006820324186,0.049208475749999994
1596.0,0.026994983814999998,0.037375551495,-0.009353044213000001,0.047079758705
1597.0,0.02816644481,0.038212121815,-0.007421873694,0.048104902495
1598.0,0.025733040025,0.03916771736,-0.0071010134675,0.04740612627
1599.0,0.026802856925,0.04039444028,-0.0073805691345,0.049096762264999996
1600.0,0.025759885625,0.03996030744,-0.0073514362425,0.04815784004
1601.0,0.024068211615,0.046148387105,-0.0070486866199999994,0.05259242559
1602.0,0.02160104203,0.04605474567,-0.0074889561605,0.051813904425
1603.0,0.0062293770550000006,0.05409714939,-0.012304343192,0.06440377894
1604.0,0.035547350731,0.042768914295,0.0016540597900000006,0.068077276725
1605.0,0.022443746185000002,0.03182744386,-0.005848550623,0.04104238339
1606.0,0.01724299755,0.06003035924,-0.004540319960000001,0.062648666785
1607.0,0.02455564583,0.04373512082,-0.01173141208,0.05151083929
1608.0,0.01616411174,0.048358479844999996,-0.008761338953,0.052113907915
1609.0,0.017778711425,0.051402397,-0.0017309105485000002,0.054825638865
1610.0,0.01801311025,0.055603759025,0.002002400497,0.05869003697
1611.0,0.017691478995,0.048592385665,-0.005169732597,0.05221081448
1612.0,0.017151712195000002,0.053507033484999994,-0.00080356937575,0.05619641669
1613.0,0.018742349765,0.051539720580000004,-6.881943500000002e-06,0.054852768415
1614.0,0.019003892279999997,0.046814620005,-0.0006487557424,0.05054062051
1615.0,0.0236665251,0.039545860239999994,-0.00089820254835,0.046371169605
1616.0,0.021513454175000002,0.06177458367,0.002498197091,0.06563559084500001
1617.0,0.031811983125,0.02709726423,-0.0015939137250000003,0.042094706595
1618.0,0.0240104331,0.048845845265,0.004788704808,0.054852250085
1619.0,0.02995628325,0.033658184145,-0.0009118417520000001,0.04543105903
1620.0,0.030684112559999997,0.037224183135000005,0.00334569080775,0.04856234423
1621.0,0.032127245505,0.034782466134999995,0.0018005024466,0.04751792288
1622.0,0.03349587805,0.032990644225,0.0009217132278,0.04709936626
1623.0,0.03640187544,0.022995981314999997,0.0035933490535,0.043627266715
1624.0,0.035275185769999995,0.032860549404999995,-0.0043228852265,0.04840719469
1625.0,0.040029017959999996,0.022921842060000003,0.0033348978225000003,0.04626243223
1626.0,0.04042214576,0.02224838613,0.0016839106865,0.046216721615
1627.0,0.04179300254,0.02251179746,0.0003455274508,0.047567125635
1628.0,0.040161210895,0.02171024165,0.00061047941,0.045759321724999996
1629.0,0.04072445254,0.020517937049999997,0.00065572797375,0.045690257035
1630.0,0.042535214845,0.019392904095,0.0014195678119999998,0.046924367935
1631.0,0.04296012971,0.021148542059999997,-0.0009087203705,0.047970441190000004
1632.0,0.043376623445,0.017019811625,-0.0006383339405,0.046707082080000004
1633.0,0.041374897960000004,0.020281296795,0.0021986663035,0.046151199095
1634.0,0.046490712919999996,0.014620613055,0.003355970729,0.04887157157
1635.0,0.0418315655,0.01774801354,-0.0017904374969,0.045638865385000005
1636.0,0.043514915825,0.01699282271,0.0011081620174,0.04675631658
1637.0,0.04466122806,0.01517869539,0.001426428258,0.047437655485
1638.0,0.04562737726,0.01635927116,0.0026366127239999997,0.04866431199
1639.0,0.046441779749999995,0.011091692290999999,-0.00103648346565,0.04778053186
1640.0,0.048900499535,0.011026048696,6.120945499999992e-06,0.050208235850000005
1641.0,0.05551604506,0.005847055141,0.00783278964,0.05636995571
1642.0,0.047669551724999995,0.012827753550000001,-0.005464146354,0.049768244265
1643.0,0.07468432433,-0.031742481520000004,0.00464600551585,0.08764216247
1644.0,0.04700406979,0.032425012100000004,-0.035383547722999995,0.09607780281
1645.0,0.05253334023,-0.008380407179999999,-0.0045132364595,0.05896187596
1646.0,0.063307259275,-0.015447134180499998,-0.0058501320945,0.065762370355
1647.0,0.060770846045,-0.0083169534265,-0.010893473111,0.06234718885
1648.0,0.06405717615,-0.013751292595,-0.0071546315755,0.06592298712
1649.0,0.063735304125,-0.012009160555,-0.0061834692475,0.06515503505
1650.0,0.06333657561,-0.010326607053500001,-0.0048447793195,0.064403828165
1651.0,0.06546966281,-0.010061888694000001,-0.0035150923844999996,0.06633757722
1652.0,0.061688933425,-0.010868070689999999,-0.0041862968485,0.06282201165500001
1653.0,0.06350464293,-0.010497448933499999,-0.004269371738,0.064509781775
1654.0,0.0655090054,-0.011417915329,-0.0015456584313499999,0.066577782915
1655.0,0.06294891094499999,-0.0097745037805,-0.000711295153465,0.06371612976
1656.0,0.059944399435000004,-0.008806571749,-0.0009387461095000001,0.060640266785
1657.0,0.05039214718,0.0004276321000000003,-0.011347416250000002,0.05918204483
1658.0,0.06969871883249999,0.09972559862,0.0375989996885,0.13073156951499998
1659.0,0.039461041215,-0.056868121975,0.00835059283,0.101160457965
1660.0,0.075381215,-0.033163589935,0.012941387664999998,0.1786594378
1661.0,0.056858531375,0.01486047501,0.01847199737,0.06166777945
1662.0,0.0477149078,-0.002754158949999988,0.02067122206,0.2481185071
1663.0,0.061577429295,-0.019263468525,0.011039448923999998,0.067476886895
1664.0,0.0107207265855,0.06622132238,0.0109673701685,0.07289151604
1665.0,0.036504901085,0.029274268605,0.0153686381785,0.050516513425
