Time (s),Acceleration x (m/s^2),Acceleration y (m/s^2),Acceleration z (m/s^2),Absolute acceleration (m/s^2)
0.0,0.06795922491,0.1554710967,9.992903891,9.994344295
1.0,0.06855429298499999,0.15756422585000002,9.9989542165,10.0004306395
2.0,0.070290327785,0.1573400679,10.00240719,10.00389157
3.0,0.069682620345,0.15692733035,10.00404498,10.005518434999999
4.0,0.06922136917499999,0.15732795384999998,10.00429571,10.005772165
5.0,0.070557410085,0.15702052309999998,10.00652311,10.008003819999999
6.0,0.070246507195,0.15842030080000002,10.006157745,10.007658395
7.0,0.06980385661499999,0.15745930075,10.007248035,10.008730165
8.0,0.06920292123499999,0.15799823455,10.007352985,10.008839795
9.0,0.22078641285,0.0632794182715,10.00733865,10.010895295000001
10.0,-1.9831382526999999,-1.3632546305000002,9.148072984999999,9.7745698945
11.0,-6.8131254185,-4.7345910885,5.730693459499999,10.18865517
12.0,-4.6941471985000005,-4.790396982,7.184431748,9.897450874
13.0,-3.2886124965,-2.665461901,9.1136813695,10.050504322
14.0,-3.3215673325,-2.7700994525000002,9.006699617999999,9.991392698999999
15.0,-3.320013711,-2.7858920935,9.008365207499999,9.996755427499998
16.0,-3.2922885595,-2.751664511,9.0276415805,9.995463544
17.0,-3.2872007415000004,-2.745629451,9.032288102999999,9.9963249095
18.0,-3.260387575,-2.745982375,9.0405199465,9.995076961999999
19.0,-3.282569693,-2.7413227485,9.0304757535,9.99198132
20.0,-3.290634669,-2.7177003060000002,9.0393753015,9.9962248175
21.0,-3.281687383,-2.713364986,9.039108238,9.991862256000001
22.0,-3.268504945,-2.7073365635,9.045103263,9.99134167
23.0,-3.2892523605,-2.715302257,9.035805603,9.991900696
24.0,-3.2653715515,-2.745443484,9.0318350205,9.988775735499999
25.0,-3.5707085960000002,-2.7817094425,8.900172997,9.987340031999999
26.0,-3.5095419760000004,-2.7390764415,8.943740829500001,9.990757994500001
27.0,-3.416106137,-2.690858558,8.9932082925,9.9894109945
28.0,-3.4036152875,-2.6860320045,8.9988790265,9.988974133500001
29.0,-3.3894027094999997,-2.696710515,9.0035434,9.9912009475
30.0,-3.4071544105,-2.6896243340000003,8.997674181499999,9.990042366
31.0,-3.4012495325,-2.6969573945,8.9998686455,9.9919833235
32.0,-3.39987614,-2.688292663,9.000967962499999,9.990170218
33.0,-3.399375361,-2.6901151729999997,9.001384094999999,9.990865572
34.0,-3.394257879,-2.6946501685,9.0009775105,9.989981725
35.0,-3.3977251754999998,-2.6889174445000004,9.001831201,9.990384459
36.0,-3.3938568365,-2.6948635665,9.00114047,9.990050729
37.0,-3.3912293594999996,-2.691092255,9.001969556,9.9888873475
38.0,-3.3954069034999996,-2.692228517,8.999688765,9.988557485000001
39.0,-3.387890835,-2.7004925875000003,9.001602287,9.989960419500001
40.0,-3.3917730625,-2.6939061544999996,9.001673833000002,9.9895641535
41.0,-3.3500748075,-2.697697765,9.017002417,9.990426575
42.0,-3.3095297995,-2.6814511855000003,9.036242158,9.9898381865
43.0,-3.31896932,-2.6824359365,9.033857223999998,9.9910760335
44.0,-3.3200519555,-2.68796358,9.032517036,9.9917096365
45.0,-3.3184541995,-2.6767413665,9.035936638999999,9.991260462
46.0,-3.3214302845,-2.6773518395,9.034162457,9.9908068
47.0,-3.3254348125,-2.6817725809999997,9.031475649499999,9.9908958205
48.0,-3.3362152325,-2.6814439175,9.028515552,9.9917257495
49.0,-3.3242346840000003,-2.689876078,9.030242069,9.991559408499999
50.0,-3.320953318,-2.6891320635,9.033075042,9.9928283275
51.0,-3.32109167,-2.6895899180000002,9.0299177625,9.990143177499998
52.0,-3.323524017,-2.691869654,9.0298557395,9.9915121055
53.0,-3.3566470075,-2.680552054,9.020660497,9.991234194499999
54.0,-3.349988826,-2.6846429875,9.0227821955,9.992016579000001
55.0,-3.352120921,-2.678911408,9.024437794499999,9.9926853135
56.0,-3.349927035,-2.6790115635,9.024833649,9.992333896000002
57.0,-3.3451672109999997,-2.6891892960000003,9.026607857,9.995075432
58.0,-3.3593607435,-2.6904007035,9.0153617785,9.990010914500001
59.0,-3.3568616295,-2.6968106709999997,9.017789386499999,9.9930909385
60.0,-3.3569856319999998,-2.691483339,9.0186860455,9.9925042705
61.0,-3.3594656785000003,-2.6909014815,9.019100952999999,9.993555652
62.0,-3.353432487,-2.6954132595,9.018457082,9.9921645425
63.0,-3.359618297,-2.6899190015,9.0177607555,9.992132569999999
64.0,-3.354634356,-2.696381432,9.0181804595,9.992579622000001
65.0,-3.3559683925000003,-2.689556571,9.019573952,9.9924450995
66.0,-3.3583067335,-2.691583495,9.01800399,9.992360507
67.0,-3.3642493079999998,-2.706530548,9.0121567865,9.993121714499999
68.0,-3.3683509245,-2.6996913410000003,9.011966038499999,9.992480332500001
69.0,-3.3550083755,-2.7016558055,9.0166981935,9.992791593
70.0,-3.3535230945,-2.6837856545000003,9.02373672,9.9938309675
71.0,-3.356561147,-2.6773470704999998,9.023178707,9.992620836
72.0,-3.3510812095,-2.6811911435,9.0247812195,9.993259622
73.0,-3.3489397865,-2.6824979375,9.0254107395,9.993460189
74.0,-3.353790183,-2.6820543905,9.0240705595,9.9937593995
75.0,-3.3473897519999998,-2.6930762925,9.0235125495,9.994071842
76.0,-3.3505136555,-2.6853166065,9.02380824,9.9932988905
77.0,-3.3781280220000003,-2.799484721,8.9798160245,9.9950861865
78.0,-3.425902326,-2.9152648825,8.910765709,9.982300867500001
79.0,-3.5715098425000003,-2.8398665984999996,8.91176245,10.01224113
80.0,-3.5872963149999997,-2.84104465,8.858293567499999,9.9709530325
81.0,-3.4616340885,-2.7888347725,8.948224043,9.991567332
82.0,-3.477248877,-2.7875804565,8.9392004735,9.988593910999999
83.0,-3.4922006645,-2.810339676,8.927467937,9.989653539999999
84.0,-3.476719447,-2.8005005115,8.935652108,9.988809807500001
85.0,-3.4806379214999996,-2.7908551284999996,8.936854915,9.988547906
86.0,-3.4768052945,-2.7956644025,8.9376838385,9.989299765
87.0,-3.4790539345,-2.7899746160000003,8.939257114499998,9.9898996615
88.0,-3.474363402,-2.7886391865,8.9405120455,9.98901756
89.0,-3.4708865665,-2.7885485715,8.942295774,9.9893810695
90.0,-3.4750501845,-2.7849858860000003,8.9438124315,9.991191387
91.0,-3.471291959,-2.7910810835,8.942701170500001,9.990590903000001
92.0,-3.474158321,-2.7841989480000002,8.9435787315,9.990452490500001
93.0,-3.474134475,-2.786078061,8.9446041385,9.991886389000001
94.0,-3.4716544275,-2.7886391875,8.945219369,9.9922901125
95.0,-3.4720108105,-2.7845648505,8.946810701499999,9.992701574000002
96.0,-3.4706242539999996,-2.7892544304999998,8.9466978695,9.993426960499999
97.0,-3.4718165845,-2.7827347665,8.9479760495,9.9931676435
98.0,-3.4726669735,-2.7833052345000002,8.947092346,9.992830931
99.0,-3.4626022555000002,-2.7857346720000002,8.9519727375,9.9943939145
100.0,-3.3979964545000003,-2.7644853775,8.981332764000001,9.992666398499999
101.0,-3.3847478515000002,-2.7677495585000003,8.9850670525,9.9924177305
102.0,-3.4009587755000004,-2.7689705045,8.9803740455,9.9940400445
103.0,-3.4014500155,-2.768822656,8.9796777245,9.9935407
104.0,-3.399284744,-2.7714600904999998,8.981189591,9.9948943285
105.0,-3.405670865,-2.7650596615,8.9795298785,9.9938053625
106.0,-3.4041685289999997,-2.7699148300000003,8.9783804865,9.99360407
107.0,-3.4099155615,-2.7670055445,8.977541047999999,9.994002703500001
108.0,-3.4108217325,-2.7685603435,8.976014901,9.993371561
109.0,-3.4081366045,-2.7737112105,8.976010123,9.993879900500001
110.0,-3.4129631575,-2.7691278925000002,8.974545933,9.992940603000001
111.0,-3.414017178,-2.7739735234999996,8.9725285165,9.992833972
112.0,-3.4141745649999997,-2.770782847,8.972290041,9.9917874855
113.0,-3.4244429145,-2.7709068495,8.969614462,9.9929349235
114.0,-3.4274571255,-2.772132565,8.968779826,9.993559256000001
115.0,-3.4308671905,-2.7707017680000003,8.967549331499999,9.993226672999999
116.0,-3.4292295005,-2.7760075239999997,8.965547724,9.992342196500001
117.0,-3.429231313,-2.7710308515,8.9671582665,9.9924055835
118.0,-3.4307622655000003,-2.7719227145,8.9671725615,9.9931911665
119.0,-3.4275429735,-2.777583899,8.96620917,9.9927941285
120.0,-3.4940607525000003,-2.806147433,8.934087755499998,9.9953782425
121.0,-3.5315094995000003,-3.2438666830000003,8.748246058,9.9775135195
122.0,-3.5889321945,-3.2248943,8.739828214500001,9.9845548055
123.0,-3.486224756,-2.9070282665000002,8.900778691,9.991958426
124.0,-3.5472387395,-2.827676216,8.92874118,10.016108831499999
125.0,-3.5946363075,-2.4993748829999998,8.979381926,9.9905598445
126.0,-3.6223460865,-2.303179111,9.061032790999999,10.0264505965
127.0,-3.571610002,-2.2060088575,8.938980975500002,9.875701701
128.0,-3.5500574205,-2.3697827475,9.148845645,10.095784370499999
129.0,-3.5243173800000003,-2.2594873115,9.0058850795,9.931414948
130.0,-3.5462371975,-2.303927894,9.072317037000001,10.009664539500001
131.0,-3.549823735,-2.3279319115,9.08225629,10.0254138175
132.0,-3.6261710894999997,-2.4435069875,8.9835646255,9.9916323375
133.0,-3.4536883984999998,-3.6648169404999997,8.5891127685,9.961803366
134.0,-3.8412456135,-4.091614206,8.2416437755,9.975038912999999
135.0,-4.9593885150000006,-3.8754876114999997,7.9687426315,10.169500882000001
136.0,-7.206322946,-0.8919164442399999,7.2887702795,10.3649236095
137.0,-0.8700109282499999,5.1008801055,7.222905889,9.078550052
138.0,-0.057744748275,4.303800862,9.0449403605,10.026591871499999
139.0,-0.29087165994999997,4.826877537,8.764662094,10.010332517
140.0,-0.16808168784,4.948894931,8.553819536999999,9.884452522
141.0,-0.4332256555,2.7353159805000002,9.471454579,9.913723556
142.0,0.15716555059999998,2.6688268859999997,9.732970716,10.10628782
143.0,0.47759077615,2.12671404,9.769020221,10.012815863
144.0,0.73893554,3.124957846,8.9645684005,9.54863567
145.0,-0.96569197425,0.35667653,10.2260329915,10.523493802499999
146.0,0.161167603455,3.197881612,9.225563250499999,9.77128728
147.0,0.33055722135,2.518642963,9.2433450345,9.604775311000001
148.0,-5.298993699,-1.860167422,8.5310213275,10.32627868
149.0,-6.2675192615,-4.508215027,5.9780307194999995,9.848978453
150.0,-5.0993212295,-3.266352591,8.104112184,10.145024285
151.0,-4.3608898455,-2.4867366205,8.7663659555,10.10498337
152.0,-3.3715516295,-2.0927803415,9.0117994445,9.892669101
153.0,-3.696375555,-1.832875864,9.094136709499999,9.987862713
154.0,-3.9913154255000003,-1.972016183,8.9569137105,10.003262920000001
155.0,-4.065759858,-2.08352303,8.88432457,9.9907527975
156.0,-3.9170509395,-1.9996150655,8.9778595065,9.9971918255
157.0,-3.9375031465,-1.977372122,8.9762009,9.999308302500001
158.0,-3.9445903585,-1.968548877,8.974431461999998,9.998769951
159.0,-3.9495709975,-1.967119568,8.972154932999999,9.99841173
160.0,-3.954136723,-1.9621369975,8.9719611745,9.9990635165
161.0,-3.9562125139999997,-1.961104326,8.972335689000001,10.000017784
162.0,-3.9522880435,-1.963154775,8.9734775935,9.999894097
163.0,-3.9566853579999997,-1.9598877895,8.9729482285,10.0005162245
164.0,-3.9524502,-1.962787537,8.97287668,9.999347141000001
165.0,-3.9549614560000004,-1.947064447,8.9757475225,9.999843101
166.0,-3.958114962,-1.9392028259999998,8.976064118,9.999845456
167.0,-3.9549836565,-1.9417593525,8.976655583500001,9.9996340185
168.0,-3.9596273855,-1.9378377595,8.9764121745,10.00049218
169.0,-3.9566035415,-1.941526583,8.9769311195,10.000476599999999
170.0,-3.959059079,-1.935866382,8.976349286000001,9.999828864000001
171.0,-3.960646128,-1.936837943,8.9749264205,9.999368220000001
172.0,-3.944304767,-1.9355790805000002,8.9841374425,10.000938705
173.0,-3.9385810135,-1.9336755970000001,8.9876663485,10.00148396
174.0,-3.9423344695,-1.9387453875,8.9840559485,10.0007002
175.0,-3.9468128625,-1.9332606675,8.982286544499999,9.999815257000002
176.0,-3.9497746109999996,-1.9336899065000002,8.981256351999999,10.000142108999999
177.0,-3.9502372350000003,-1.9358361,8.980941584,10.00045853
178.0,-3.9602528105,-1.931248014,8.9778176855,10.000727715
179.0,-3.9543102355,-1.9351445489999999,8.9798923525,10.00099169
180.0,-3.9512912555,-1.929917373,8.9809892755,9.9997727455
181.0,-3.9556408765,-1.9288395065,8.980602990000001,10.0009373
182.0,-3.9485107409999998,-1.936231955,8.981294514,10.000169552500001
183.0,-3.9531846760000002,-1.9281765705,8.9822531465,10.00132026
184.0,-3.9518654050000004,-1.931095584,8.981005728500001,10.000243745
185.0,-3.9473661040000003,-1.9319109485000001,8.9828731755,10.00029966
186.0,-3.9543489244999996,-1.9296617180000002,8.98029498,10.000309224999999
187.0,-3.9552545615,-1.9300652155,8.978347078999999,9.9989959225
188.0,-3.9561464245,-1.9324689595,8.978852636500001,10.0002683435
189.0,-3.9560844235,-1.9273610159999999,8.9789671005,9.999358762
190.0,-3.9586360105000002,-1.9295072105,8.9816999095,10.003236035
191.0,-3.944347123,-1.9367947325000001,8.981566374,9.998880912499999
192.0,-3.9502563124999996,-1.9302130715,8.982458236,10.00074022
193.0,-3.9519224145000003,-1.925677748,8.9816061115,9.9997600775
194.0,-3.9495988275,-1.927189035,8.984413876,10.001655335
195.0,-3.9456682255,-1.9260876009999999,8.985605984500001,10.0009700295
196.0,-3.9267054029999997,-1.9336946675,8.992182863,10.0008778725
197.0,-3.937014405,-1.9243026545,8.989300523499999,10.000528625000001
198.0,-3.9454011435,-1.9248094285000001,8.9854104355,10.0004345615
199.0,-3.939749346,-1.928607191,8.986573803999999,9.9999845975
200.0,-3.9476856485000003,-1.921437517,8.9848190225,10.0001559715
201.0,-3.9430546375,-1.928395957,8.985567849,10.0003413105
202.0,-3.9484360150000004,-1.920571178,8.984399992,9.999909675
203.0,-3.9487730535,-1.9228540029999999,8.9841084275,10.000219054999999
204.0,-3.947480567,-1.922625077,8.985477218,10.000895060000001
205.0,-3.951405719,-1.9215138265,8.98415612,10.001044324999999
206.0,-3.9460015055,-1.9263667249999998,8.984589530000001,10.00023468
207.0,-3.9527152599999997,-1.919129889,8.984124482,10.00107552
208.0,-3.9458150444999998,-1.925567636,8.985634024,10.00094442
209.0,-3.9509383255,-1.9202690329999998,8.9845948885,10.0010145865
210.0,-3.949474144,-1.9247855815000001,8.984113178000001,10.0008725785
211.0,-3.950115389,-1.921130346,8.983922452,10.0002518185
212.0,-3.9527871245000004,-1.916414766,8.98457245,10.000985764500001
213.0,-3.9481053485000004,-1.9218238275,8.985772930500001,10.001253909999999
214.0,-3.9531799065,-1.9173978985,8.9844422815,10.001212395
215.0,-3.9498890749999997,-1.9226680015,8.985515383500001,10.001889160000001
216.0,-3.9520400385,-1.915881255,8.9852101375,10.001161305
217.0,-3.951510644,-1.9167015765,8.9861878725,10.001987575
218.0,-3.9513575105000003,-1.920534662,8.984789496000001,10.001406735
219.0,-3.9535662215,-1.915809712,8.9847713465,10.001356470000001
220.0,-3.951448643,-1.9217713695,8.984642595,10.00154813
221.0,-3.95358053,-1.916162645,8.98458058,10.00125824
222.0,-3.9562704269999998,-1.9158287895,8.982892259,10.000741439999999
223.0,-3.9528412845,-1.9213469005000001,8.984275346499999,10.001686679999999
224.0,-3.9537951490000003,-1.9155998639999998,8.984270576499998,10.00095701
225.0,-3.9560748845,-1.9198493280000002,8.983187947,10.001701545
226.0,-3.9522855635000003,-1.921359545,8.983049434,10.000369360499999
227.0,-3.95100832,-1.910993796,8.986882983000001,10.001337195
228.0,-3.9984317524999997,-1.9466727285,8.958509085,10.001746905000001
229.0,-3.9540622145,-1.9287679445,8.980044961499999,9.999801112
230.0,-3.9875237905,-1.9477880095,8.958678388,9.997608701499999
231.0,-4.081951602,-1.997241117,8.9065402,9.999046072999999
232.0,-4.218425998500001,-2.2339141775,8.7609802395,9.978576453
233.0,-4.658005946499999,-3.476856527,8.127446879,9.9942462915
234.0,-5.024246569500001,-2.6404086204999997,8.190897837000001,9.971894656
235.0,-6.0703028539999995,-3.001627831,7.357257826,10.004564441
236.0,-6.133219818500001,-3.467877158,6.857084282000001,9.862406621
237.0,-5.521076808,-3.3123208045,7.7259791685,10.075663833499998
238.0,-5.412369539,-2.839513685,7.898414152,9.987166928499999
239.0,-5.352209285,-2.8084367335,7.940074217499999,9.978895161499999
240.0,-5.3465195235,-2.796088923,7.955331231500001,9.984532121
241.0,-5.341955283,-2.7708305435,7.965003423,9.982752579500001
242.0,-5.328940606,-2.7545604575000002,7.981995576499999,9.984862751000001
243.0,-5.324876343,-2.7499456815,7.986899373,9.9853429295
244.0,-5.320297794,-2.7458392954999997,7.990509772499999,9.984661163
245.0,-5.2930745075,-2.7188878599999997,8.0198221445,9.9863466765
246.0,-5.2740162985,-2.7106512415,8.033510122,9.9849975015
247.0,-5.281542288,-2.69007162,8.036877299,9.9861231625
248.0,-5.2701913025,-2.655160187,8.057590448500001,9.9874904005
249.0,-5.2593601575,-2.5584524985000003,8.0868502595,9.980237166999999
250.0,-5.1597782500000005,-2.908139083,8.0396289115,9.988880675499999
251.0,-4.965687647999999,-3.3417260375,8.004397014,9.9950805455
252.0,-4.912548937,-3.6845333195,7.8543933,9.9700163425
253.0,-4.9228363795,-3.664354331,7.8765610944999995,9.985105851
254.0,-4.929203419,-3.6441848695,7.8801810075,9.983706135
255.0,-4.932193783500001,-3.6275494679999998,7.8851744870000005,9.9830694235
256.0,-5.1386197675,-3.338609354,7.939559121,10.03417001
257.0,-4.1992577220000005,-3.6556930075,7.937137257,9.730623341000001
258.0,-5.3863051965,-2.619638198,8.098973867,10.0735434815
259.0,-5.3704615365,-2.6348703525,8.041840346,10.022851081999999
260.0,-5.2587474455,-2.7470433945000003,8.0119786405,9.9730238285
261.0,-4.9455240695,-2.677513974,8.2576826675,9.9908559875
262.0,-4.904050016,-2.703296951,8.283313096,9.998684648
263.0,-4.979586588,-2.6727875815,8.2282226085,9.9824569815
264.0,-4.9218777795,-2.729256398,8.255569919500001,9.991414941
265.0,-5.004580666,-2.6712778775,8.220089273500001,9.9876449915
266.0,-4.9467211655,-2.757524177,8.227235268000001,9.9880775755
267.0,-4.97359155,-2.821981621,8.1834433345,9.983466908
268.0,-5.152932528,-2.668557184,8.127031786,9.987732338499999
269.0,-4.9621070305,-2.570137372,8.312940125499999,10.016679534000001
270.0,-4.859032367999999,-2.5131868555,8.310660395500001,9.949644128500001
271.0,-4.8900043595,-2.5548612344999997,8.3335722545,9.994476757000001
272.0,-4.9000628595,-2.5995975035,8.343797683,10.019363218
273.0,-4.866697829,-2.556136439,8.31139553,9.9648872955
274.0,-4.884061791500001,-2.5802721955,8.327176584,9.992734503000001
275.0,-4.8996718015,-2.592600901,8.33920006,10.0135272155
276.0,-4.8638541375,-2.55214746,8.3062392395,9.958139100499999
277.0,-4.8963761815,-2.590173311,8.3258316315,10.000152264
278.0,-4.891273002,-2.585184591,8.302118533000002,9.976633248999999
279.0,-4.901329911,-2.5935807495,8.284493643,9.969103292
280.0,-4.8937150305,-2.6394839195,8.278812044999999,9.9726703195
281.0,-4.8994499125,-2.6381166005,8.280193119,9.976265545499999
282.0,-4.8986877675,-2.643054438,8.2830706395,9.9795864715
283.0,-4.9005588745,-2.642774259,8.285936044,9.9828087155
284.0,-4.900496873,-2.6440715145,8.288559173,9.9852994145
285.0,-4.908132537,-2.67647906,8.2835800495,9.993640394
286.0,-5.464464926,-3.2145687205,7.6698203565,9.959767766999999
287.0,-6.5785937955,-3.0069599470000004,6.963716887,10.04229682
288.0,-6.8452563455,-1.8875609544,6.9546456125,10.020882122
289.0,0.59432957295,1.2182957325000001,9.5207672075,9.6480037825
290.0,1.3024556235000002,0.8720111306,9.871046069,9.9951490055
291.0,0.3028385255,0.8081479618,9.979138422999998,10.1246226235
292.0,0.75918435096,2.010895425,9.5561885885,9.8406757825
293.0,0.4448530428,1.0801836216499998,9.9134601635,9.993967774
294.0,-0.04813580569999999,1.0951572595,9.987958701499998,10.05120967
295.0,-0.7376743540949999,1.538687231,9.395451034,9.58697141
296.0,-5.937977913,-2.5523096250000004,7.513629721499999,10.1804435225
297.0,-4.8301683765,-4.531050556,7.5476350225,10.058300445499999
298.0,-4.3388327715,-2.4245610505,8.6640495895,9.9932592575
299.0,-4.1906893035,-1.7394565435,8.9169660025,10.005119140000001
300.0,-4.125743689,-1.5366673265,8.9834597425,10.0044341475
301.0,-4.165749407,-1.521144646,8.9846313835,10.019551322
302.0,-4.150747656,-1.4809895145,8.956433003,9.982023995
303.0,-4.164433573,-1.5206743545,8.980498558,10.015249189
304.0,-4.137935848,-1.6218056265,8.970100038,10.010785760000001
305.0,-4.180152617499999,-1.5524165375,8.9493169935,9.998755145499999
306.0,-4.1831881545,-1.5856360784999999,8.9567133735,10.01187195
307.0,-3.8261719364999998,-1.4467048715000002,9.139543361000001,10.013501380000001
308.0,-3.753778674,-1.415817871,9.178158695,10.017027065
309.0,-3.9333072795,-1.4185996655,9.0883733605,10.0042847315
310.0,-4.0112616495,-1.452398352,9.0563357945,10.010839874999999
311.0,-4.0449560380000005,-1.5732432835,9.018690757,10.008678895
312.0,-4.0167404835,-1.5413181645,9.0364843015,10.00842171
313.0,-4.0093529745,-1.5070164135000002,9.045961758,10.008775525
314.0,-4.02306171,-1.5268435415,9.036186311,10.00844407
315.0,-4.0294890495,-1.525235231,9.034586931,10.00934071
316.0,-4.036981654,-1.526441876,9.030027435000001,10.00843007
317.0,-4.02681823,-1.5289362465,9.033246716499999,10.00762119
318.0,-4.0363622905,-1.5233443265000002,9.0292406845,10.006997455
319.0,-4.031534001500001,-1.532802383,9.0309902415,10.00807351
320.0,-4.037158119,-1.5259792525,9.0306903815,10.009028045
321.0,-4.035698706,-1.5299759565,9.03154884,10.009824765000001
322.0,-4.050068746,-1.5261318825,9.030571135999999,10.01416337
323.0,-4.0366335395,-1.5291317905000001,9.025091215,10.004247055
324.0,-4.0375968965,-1.535246071,9.025739831,10.00615567
325.0,-4.133751306,-1.6139447205000002,8.972113548500001,10.010407305000001
326.0,-4.606262846,-2.0033458755,8.634688405999999,9.9916499825
327.0,-5.495854972,-1.6020452155,8.1622624385,9.977313644999999
328.0,-6.160900985,-2.329095627,7.540748091,10.04065926
329.0,-6.513311259,-2.827886062,7.0560796515,10.013820915
330.0,-7.547100853,-3.323428571,5.46464615,9.9421021135
331.0,-0.5796400422,-1.4808662123999998,9.588200715,9.834014908499999
332.0,0.7683765892000001,-0.8024677312999999,9.9493579695,10.0128200085
333.0,0.8447837275500001,-1.0040698579999998,9.9346923265,10.020978509999999
334.0,0.6480421939000001,-0.5360784594,10.195585695,10.244423235
335.0,0.0479861754,2.1873748869,9.3253746295,9.687745342500001
336.0,0.7205470593000001,-0.0359729073,9.993429889,10.023615325000002
337.0,0.006086624600000007,0.18823564750000002,9.993064008,10.024174739
338.0,-3.7664429090000002,-1.42885336435,8.969457517999999,9.949319175
339.0,-5.4041708155,-5.572724481,6.065735668,9.930419661
340.0,-4.1102742565,-4.231684989,7.9014119025,9.942112453
341.0,-3.6001482155,-1.771784393,9.1858776935,10.024644835
342.0,-3.1981926764999997,-1.6732714665000001,9.3370873415,10.011746930000001
343.0,-2.9734702349999997,-1.555513796,9.433468344,10.012714455000001
344.0,-3.0685843645000004,-1.577301111,9.402204052,10.01526698
345.0,-3.0611008795,-1.6373726899999999,9.3920021605,10.01305288
346.0,-3.0839693215,-1.5988992005,9.394344082,10.01604776
347.0,-3.1187058685,-1.5961304570000001,9.381633271,10.01444455
348.0,-3.1122333405,-1.593083688,9.38458884,10.014711
349.0,-3.1221600494999997,-1.5921650685,9.381671433000001,10.01492074
350.0,-3.1229309235000002,-1.590140215,9.381323713,10.014513990000001
351.0,-3.103424383,-1.5883906780000001,9.3885998155,10.014998235
352.0,-3.109343133,-1.5837024325,9.389458293499999,10.01688907
353.0,-3.1076786485000003,-1.5812939254999998,9.3887667675,10.01534377
354.0,-3.1018545545,-1.5734873275,9.394067302,10.017281705
355.0,-3.1056230745000004,-1.5665662595,9.3928111445,10.016184115000001
356.0,-3.1279244225,-1.5805832965,9.384145273000001,10.017221535000001
357.0,-3.200963166,-1.610239473,9.3537434285,10.016637995
358.0,-3.3262520175,-1.7074330495,9.2846378295,10.009734585
359.0,-3.54221186,-1.965410661,9.161689357499998,10.018040625000001
360.0,-3.797594969,-2.1877757134999998,8.995554753,10.0065597105
361.0,-3.680837108,-2.1670768904999997,9.053139589499999,10.01020586
362.0,-3.6627886265000003,-2.168246557,9.0583998985,10.00860211
363.0,-3.658565822,-2.1864578674999997,9.059000641,10.01155396
364.0,-3.6642970985,-2.186993577,9.0540552955,10.00929268
365.0,-3.7279937920000004,-2.2141642665,9.0809500245,10.063158564999998
366.0,-3.7680680765,-2.1169846135,8.969972049999999,9.957031817
367.0,-3.793729365,-1.8691130870000001,9.120353597000001,10.053288613500001
368.0,-3.769360071,-1.8971302680000002,9.055442017,9.990800095
369.0,-3.715625877,-1.871836164,9.0916301145,9.9983988955
370.0,-3.746296109,-1.844780102,9.058609973500001,9.9748699495
371.0,-3.7511512845,-1.9148414914999998,9.116905416,10.042713895
372.0,-3.361587111,-1.652238383,9.280620501000001,10.0086810965
373.0,-3.2203043375,-1.5298257080000002,9.3582166375,10.014463840000001
374.0,-3.181274046,-1.5013647730000002,9.3750739955,10.013335155
375.0,-3.214149748,-1.472160609,9.3687333145,10.01355051
376.0,-3.23716573,-1.46393988,9.363618124999999,10.01498351
377.0,-3.2501144379999998,-1.4546110890000001,9.3596023275,10.014054975
378.0,-3.2556420815,-1.4555077220000001,9.3568218275,10.013382625
379.0,-3.2586515235,-1.4585171639999999,9.356764596000001,10.014746065
380.0,-3.2653142655,-1.4524219710000001,9.354689948,10.01409213
381.0,-3.2676416945,-1.4547732464999998,9.355743963,10.016176945000002
382.0,-3.2643604015000003,-1.4573391414999999,9.3548378055,10.014633934999999
383.0,-3.272635174,-1.4515682625,9.354050851,10.01576066
384.0,-3.266983528,-1.4524744335,9.355338571499999,10.015249845
385.0,-3.4897159144999996,-1.5958498985,9.298440306,10.059867585
386.0,-3.6784476805,-1.0504011476500001,9.166606591499999,9.935769699
387.0,-3.7611290349999997,-1.680575389,9.155516711,10.039863605
388.0,-3.895833543,-1.766071913,9.046228823,10.006839150000001
389.0,-3.870122095,-1.8997656575,9.040200399,10.015804
390.0,-3.784488837,-1.875308543,9.079823927,10.014108825000001
391.0,-3.7821184555,-1.8768776365,9.076895576999998,10.010850705
392.0,-3.7781789789999998,-1.87626239,9.075865381,10.00831433
393.0,-3.762068214,-1.8704247455,9.0802627045,10.005148120000001
394.0,-3.7179281724999997,-1.814652281,9.1181263635,10.012855165000001
395.0,-3.6755050039999997,-1.814924141,9.133702945,10.011385515
396.0,-3.670587833,-1.809353569,9.1357537835,10.010443859999999
397.0,-3.662422755,-1.808018166,9.1387775065,10.009973675
398.0,-3.6666006805,-1.805681198,9.138844287000001,10.011139935
399.0,-3.665022035,-1.8073027685,9.1389730615,10.010972435
400.0,-3.6653892729999997,-1.807374308,9.139402302499999,10.011511245000001
401.0,-3.654023971,-1.7994619815,9.1483877,10.014164615
402.0,-3.660046202,-1.7973238805,9.140653717500001,10.00891029
403.0,-3.6642684745,-1.797444555,9.1412957085,10.011055429999999
404.0,-3.66816066,-1.803611826,9.1402308935,10.0126068
405.0,-3.6698775825,-1.807367352,9.139647806,10.013379955000001
406.0,-3.724974258,-1.8129943245,9.112045567500001,10.009591005
407.0,-3.7080270430000004,-2.0669400755,9.066159818500001,10.011377415
408.0,-3.6183827859999997,-2.1410983679999998,9.086954064,10.01251396
409.0,-3.669614887,-2.116693742,9.0715682175,10.012005055
410.0,-3.6928605880000003,-2.091917075,9.0685874075,10.012634405
411.0,-3.696218195,-2.0865944795,9.0699800455,10.014016385
412.0,-3.6346032595,-1.9801144915000002,9.114048591500001,10.010200195
413.0,-3.4324458515,-1.7226901275,9.2448902585,10.0109345415
414.0,-3.6330532355000003,-1.7556270875,9.161779957,10.01100494
415.0,-3.6556026260000003,-1.769362739,9.1511682325,10.011895384999999
416.0,-3.629252107,-1.7195805245,9.1735649565,10.01412711
417.0,-3.6263023555,-1.740873005,9.1670558615,10.010777065
418.0,-3.62914243,-1.7467656525,9.1660007995,10.011865205
419.0,-3.633391895,-1.744619458,9.165323571,10.01241198
420.0,-3.6286893439999997,-1.7505620325,9.167140673999999,10.013407130000001
421.0,-3.6344220685,-1.7465605714999999,9.166091419,10.013827105
422.0,-3.632962656,-1.750261567,9.1649563155,10.012904845000001
423.0,-3.6339777835,-1.74771823,9.164095121999999,10.01204045
424.0,-3.6376985925,-1.749560475,9.163296606,10.012982615
425.0,-3.6347654594999996,-1.7534379375,9.164622478,10.013809665
426.0,-3.6389583745,-1.75049089,9.1626948165,10.013052134999999
427.0,-3.6383710669999996,-1.753747943,9.162767207000002,10.01347683
428.0,-3.63574794,-1.7531660825,9.163473051499999,10.01306613
429.0,-3.6372216605,-1.753228087,9.163606602,10.013734525
430.0,-3.6326835375,-1.7569673575,9.164213756,10.013298275
431.0,-3.6380992155,-1.7519499060000001,9.1638689195,10.014069665000001
432.0,-3.635409318,-1.757916332,9.164741706000001,10.01493765
433.0,-3.636816268,-1.756161218,9.164245705999999,10.014686175000001
434.0,-3.6371310435,-1.7573440224999999,9.161469948,10.01246793
435.0,-3.639606321,-1.7602628525,9.162175813,10.01452741
436.0,-3.639711454,-1.7571058179999999,9.1611561695,10.013076819999998
437.0,-3.644075682,-1.75985496,9.1609713555,10.014978675
438.0,-3.641338436,-1.7596730605,9.1602874115,10.013324950000001
439.0,-3.6395618919999997,-1.7584603589999999,9.1612322045,10.013329855
440.0,-3.636938302,-1.7613512525,9.162923701,10.014432525
441.0,-3.6337543635,-1.7615553275,9.1649038455,10.015124584999999
442.0,-3.6369259620000003,-1.7583169515,9.164183697999999,10.01504732
443.0,-3.634678268,-1.7636674074999998,9.165580746500002,10.016450525
444.0,-3.638535362,-1.7613411025,9.1627661685,10.014866275
445.0,-3.640427723,-1.7656732320000001,9.161552148,10.01520718
446.0,-3.6414388385,-1.7624750075,9.1613767925,10.014850675
447.0,-3.6421661404999996,-1.7621097215,9.161351846999999,10.01502777
448.0,-3.6394529455,-1.7642476955,9.1627742715,10.01572059
449.0,-3.6446763555,-1.761229612,9.1613912045,10.015821859999999
450.0,-3.639248622,-1.759022817,9.164145538,10.015981
451.0,-3.6325811105,-1.759866992,9.1663537385,10.0157289
452.0,-3.6365899905,-1.759849789,9.1655638995,10.016457595
453.0,-3.6352458555,-1.7636449994999999,9.1660504195,10.017082245000001
454.0,-3.6370022715,-1.760362993,9.165705109000001,10.016826555
455.0,-3.6369021155,-1.7604297629999999,9.164417383,10.015623864999998
456.0,-3.635175621,-1.7619941125,9.166205892499999,10.01690927
457.0,-3.6387239965,-1.759299435,9.1657957235,10.017347855
458.0,-3.6346319185000002,-1.760835158,9.167059583,10.01728919
459.0,-3.638495069,-1.7586031135,9.1648561455,10.01628272
460.0,-3.6343743755,-1.7624138155,9.16524248,10.015810174999999
461.0,-3.6391675435,-1.757243854,9.166062813,10.017392795
462.0,-3.636878269,-1.760663468,9.1652138585,10.01638528
463.0,-3.63237603,-1.761006862,9.166692377,10.01616443
464.0,-3.6391641935,-1.757547919,9.1651143165,10.016576845
465.0,-3.6351136200000003,-1.7627953625,9.166477728,10.017275845
466.0,-3.6361199104999997,-1.7522933115,9.166325117,10.01566639
467.0,-3.6147533579999997,-1.755970459,9.1758113,10.017256705000001
468.0,-3.625512976,-1.753719324,9.1716429115,10.01693228
469.0,-3.6298530585,-1.7572677045,9.169024562499999,10.01672793
470.0,-3.6269199255,-1.7598812984999999,9.1689053325,10.01601621
471.0,-3.6335099050000004,-1.755311291,9.16777789,10.01656953
472.0,-3.6278636224999996,-1.751048875,9.171055925,10.016777795
473.0,-3.6322377195,-1.7515254379999998,9.169682700500001,10.017189495
474.0,-3.636549186,-1.7500517174999999,9.167574689,10.016566615
475.0,-3.6408129595,-1.7469421205,9.1673600475,10.017376030000001
476.0,-3.6381182355,-1.7482369915,9.167069642000001,10.01635765
477.0,-3.6408368060000003,-1.746665498,9.164765546000002,10.014961855
478.0,-3.6343208065,-1.7503164944999998,9.167555774,10.015788
479.0,-3.619489323,-1.7403032295,9.1742278895,10.01478701
480.0,-3.631309114,-1.7489709919999998,9.1674123125,10.014340315
481.0,-3.635084972,-1.7487163205,9.167693915,10.015950705000002
482.0,-3.6203429925,-1.78836851,9.164131212000001,10.014340650000001
483.0,-3.583404581,-1.7610545665,9.1847967055,10.015124100000001
484.0,-3.590301015,-1.7519642245,9.182531262,10.01391638
485.0,-3.5921531235,-1.7491764029999999,9.18434453,10.015758805
486.0,-3.575778406,-1.7522933345,9.1897710825,10.01542974
487.0,-3.556950558,-1.7577171155,9.193644114,10.013385685
488.0,-3.586418763,-1.754649368,9.1865232015,10.016758075
489.0,-3.4888860455,-1.7422157475,9.22354747,10.014390805
490.0,-3.299858556,-1.59637452,9.318070869500001,10.013265703
491.0,-3.5533101015,-1.6674517880000002,9.2213584715,10.023671465
492.0,-3.5949081575,-1.6893143825,9.1956183655,10.017185295
493.0,-4.048833546,-1.9531487244999999,8.921811398,9.995977665
494.0,-4.9450232955,-1.919629908,8.534575495,10.051304850000001
495.0,-6.2124097055,-3.0405169274999997,6.9660681515,9.840410779
496.0,-0.7191571458,-1.24456040955,9.99215311,10.1191349265
497.0,-3.0418047599999998,2.810973304,8.6069460795,9.581671405
498.0,-6.7574537825,-3.3808645674999998,6.22786492,9.973055037
499.0,-6.2916949110000004,-3.631190448,6.8761454215,10.029590051
500.0,-5.9151185235,-2.6845773619999997,7.6143722105,10.00883301
501.0,-5.853479764499999,-2.6895422225,7.6124978905,9.9723235435
502.0,-5.782931991,-2.7211580575000003,7.6780332935,9.9899551805
503.0,-5.7682806355,-2.7237048745,7.686355784,9.988578275
504.0,-5.7671684370000005,-2.7140320339999997,7.6916600805,9.9893867745
505.0,-5.763911937,-2.7105558555,7.6951694895,9.9892661765
506.0,-5.7593374194999996,-2.7091048275,7.699967105500001,9.989931678000001
507.0,-5.7591941124999995,-2.705556698,7.700536660999999,9.9893252915
508.0,-5.754888380500001,-2.709864304,7.70332026,9.9901577935
509.0,-5.7551077695,-2.705619608,7.704283663,9.9898763625
510.0,-5.7531813045,-2.705804192,7.704645715,9.9890962155
511.0,-5.7519196865,-2.705577195,7.7072480045,9.9903156115
512.0,-5.751250997,-2.703547338,7.7089807635,9.990717843
513.0,-5.7470476165,-2.704641897,7.711661803,9.990664777500001
514.0,-5.748158868,-2.703244486,7.7098399225000005,9.989519231500001
515.0,-5.749127039999999,-2.7039885,7.7097683825,9.9902226235
516.0,-5.747610396,-2.7021904660000002,7.7105123965,9.9894374815
517.0,-5.748335333,-2.7020283085,7.711633187,9.990675831499999
518.0,-5.745917287,-2.705590992,7.7116522645,9.9902637695
519.0,-5.7457742075,-2.702023539,7.712920904,9.990195323999998
520.0,-5.7462177545,-2.7016324555,7.713455068,9.990757083
521.0,-5.7432178515,-2.704331891,7.7151577155,9.9910774075
522.0,-5.7423854720000005,-2.701800138,7.715972664500001,9.9905432935
523.0,-5.710555085,-2.6863625065,7.7454006265,9.9909356695
524.0,-5.706808851,-2.6743710135,7.751671641,9.990413342
525.0,-5.711989564,-2.6766008415,7.744927688000001,9.9887400975
526.0,-5.7082592734999995,-2.681171044,7.7478005225,9.9900624355
527.0,-5.710134563,-2.6724157049999997,7.7490261815,9.98973723
528.0,-5.7102332239999996,-2.673917928,7.748600198,9.989865149
529.0,-5.708961480499999,-2.6742031035,7.751329669,9.991332377500001
530.0,-5.7121317734999995,-2.670993804,7.7491896255,9.990625535
531.0,-5.7086463455,-2.672708186,7.7506105430000005,9.9901942915
532.0,-5.7066085395,-2.671318648,7.7525110415,9.990132793499999
533.0,-5.7104403865,-2.6702931495,7.751539784,9.991294478
534.0,-5.7067509375,-2.674005044,7.752301683500001,9.990770281
535.0,-5.7077912745,-2.670637013,7.753931069,9.991728420000001
536.0,-5.707863647,-2.670523496,7.753233764,9.9911980165
537.0,-5.7043335729999995,-2.6743328589999997,7.753774912000001,9.9906207725
538.0,-5.706629888,-2.670803996,7.7532926615,9.9906142865
539.0,-5.7083185685,-2.671002794,7.7526912155000005,9.991165016
540.0,-5.7070150040000005,-2.6734142345,7.7529857405,9.991294231000001
541.0,-5.7095464415,-2.6696160005,7.752248729,9.9911526575
542.0,-5.706007605,-2.6709847955,7.753259825,9.9902818145
543.0,-5.7012742805,-2.673059696,7.7554127385000005,9.989805725
544.0,-5.7044137435,-2.6703994934999997,7.755645962,9.991066797999999
545.0,-5.7036992535,-2.674409168,7.7546143125,9.990930871500002
546.0,-5.702279737,-2.67131984,7.7563909035,9.9906728385
547.0,-5.703843696,-2.6730407135,7.755028411,9.9909686565
548.0,-5.700174725,-2.673102374,7.7571515914999996,9.990539304999999
549.0,-5.6737925345,-2.6023500045,7.818669479,10.004926225
550.0,-5.6029136675,-2.556640165,7.847601749000001,9.9756779665
551.0,-5.639985625,-2.6367744285,7.8230540735,9.998134092
552.0,-5.6234661455,-2.6413715675000002,7.8241307495,9.9908585895
553.0,-5.6232069935,-2.6392211144999997,7.8276660095,9.992912807
554.0,-5.6242591335,-2.6384551275,7.825527252500001,9.991627719
555.0,-5.6231218695,-2.6421513704999997,7.826587196,9.992794412999999
556.0,-5.626359548,-2.6394411655,7.825077744,9.9927182005
557.0,-5.622545035,-2.642951708,7.825666793,9.991961079500001
558.0,-5.617455025,-2.6434474144999998,7.822985355,9.9871528115
559.0,-5.658885815,-2.660741901,7.798561047,9.9961778345
560.0,-5.612191644499999,-2.587351008,7.8497186580000005,9.990468651
561.0,-5.538052014,-2.624626179,7.894394114,9.9941070685
562.0,-5.513385609,-2.6145680650000003,7.914204679,9.9934359445
563.0,-5.4691769985,-2.373970215,7.990342921,9.970228620499999
564.0,-5.5390762549999994,-2.691068392,7.900350508,10.01708596
565.0,-5.5296115845,-2.609068443,7.9058876735,9.9944028925
566.0,-5.5706991315,-2.6025400905,7.8759639815,9.991832664
567.0,-5.568323934,-2.5901890295000003,7.879973315,9.990462286
568.0,-5.583173254,-2.5841306345,7.872216241,9.991063385
569.0,-5.5836534605,-2.584640545,7.873089992,9.9921524355
570.0,-5.584584538,-2.5807309535,7.8743963505,9.992691338499998
571.0,-5.589182921,-2.5773058955,7.8722586725,9.992693837000001
572.0,-5.5868360930000005,-2.581021013,7.873480111,9.9933026955
573.0,-5.5900561799999995,-2.5760081875000003,7.8709385165,9.991807630499999
574.0,-5.589983845,-2.5795043555,7.8707568285,9.992526978499999
575.0,-5.589608999,-2.578001086,7.8705293014999995,9.991749551
576.0,-5.591358602,-2.576959108,7.8712943425,9.993061856499999
577.0,-5.588400733,-2.5788407155,7.8723279035000004,9.992706842
578.0,-5.602944903999999,-2.5910345474999996,7.858482525,9.9931425155
579.0,-5.601025821,-2.6124685135,7.8507496005,9.9915340545
580.0,-5.6055558085,-2.6391877265000003,7.849671658,10.000271487500001
581.0,-5.3549993449999995,-2.7544145825,7.9609495365,9.981997939
582.0,-5.377243479,-2.7427344865,7.968518421500001,9.996739014500001
583.0,-5.514881469500001,-2.769423649,7.896492090500001,10.0228774015
584.0,-4.7816691030000005,-4.2576298615,7.5381249695,10.058377394499999
585.0,-3.518719836,-8.390020180499999,3.4529364105,9.760116421
586.0,-2.1669492535000003,-9.3365760095,2.5774008630000003,9.930872704
587.0,-0.72584318415,-9.7389760315,0.92376265555,9.81506185
588.0,-0.22301724895,-9.611433831,1.2577250445000001,9.801571269
589.0,-0.54099726735,-9.8614967175,1.4217436315,9.981684245
590.0,0.048003266485,-9.836324916999999,1.6895289995000002,9.9929317625
591.0,-0.41139729605,-9.8006741885,1.20917201505,9.914990647
592.0,-1.4305307630000001,-9.735968939,0.6007498607,9.9087024665
593.0,0.13975556375,-9.5703634475,1.7033171189999998,9.813332833
594.0,-0.026287292099999984,-10.00922164,0.27096303565,10.02936209
595.0,-0.8060464293,-9.354762276999999,2.5110300805000003,9.829511805500001
596.0,-1.051097471,-9.9289929115,1.7959040485000002,10.152568070000001
597.0,-0.74774925105,-9.8962228705,1.6763942723,10.1174947965
598.0,-1.12952165805,-9.9701494155,2.910646203,10.505918791500001
599.0,-0.59365275925,-8.698381792500001,3.4910691085,9.5833299185
600.0,-0.5430187549,-8.9518895715,3.262379182,9.5589879395
601.0,-0.3412735387,-9.232639251,3.835188671,10.0453071535
602.0,-0.52233766795,-8.928400225499999,3.5208185,9.7902057115
603.0,-0.27122680135,-9.5297764565,2.7232613505,9.960224914000001
604.0,-0.8649602057,-9.592688638999999,3.6919067085000004,10.457563867
605.0,-0.31929684129499997,-7.66198912,4.2778375010000005,8.8213379445
606.0,-0.16820459435000001,-9.9957300845,1.2548716965,10.084416841
607.0,0.19599068839999997,-10.015093562499999,1.4589034617499999,10.147407135
608.0,0.2391721625,-9.448631151,1.71247899865,9.6806916065
609.0,-0.30227512084999997,-9.873716423000001,1.9525573290000002,10.121149887
610.0,0.130875079095,-9.912863083000001,0.95136609655,9.962736049
611.0,0.52858227385,-9.686710232,1.5829599716999998,9.8566018905
612.0,0.64792248695,-9.0325217635,3.3750231479999995,9.711454406000001
613.0,-0.07195005604999999,-9.485064032,2.457977129,9.936256513
614.0,0.19497005370000003,-10.136801996500001,0.9419132824500001,10.2192221225
615.0,0.8647885147000001,-9.722905565,1.6314099931000001,9.929875445499999
616.0,2.8573366475,-9.182431222,1.2230316745,9.69450749
617.0,0.445717368505,-9.849187791999999,0.64903851145,9.900469903
618.0,0.10224004378000001,-9.2488059575,3.2477584475,9.804427291
619.0,-2.3107909545,-9.690836609000002,2.0805803535000003,10.195907596
620.0,-5.0419169335,-5.05907219,4.5059782105,9.114102561500001
621.0,2.433000162,0.6834110468,9.087941324500001,9.479059853999999
622.0,1.6027701903,2.2891859015,9.521773532000001,10.226757315
623.0,-3.4577471015,-0.9764765931999999,9.054660983000002,10.018278024
624.0,-6.3582080115,-4.0158727149999995,6.4880910494999995,9.9571373645
625.0,-5.1704979525,-3.4041875765,7.829683408499999,9.989796751
626.0,-4.182670363,-3.3797209335,8.391414645000001,10.048129667
627.0,-4.125972609,-2.9789163115,8.708560514,10.0866866
628.0,-4.206102065,-2.7522111665000004,8.731334023,10.078629043
629.0,-4.078145804,-2.885566285,8.645324048500001,9.996639465000001
630.0,-4.120559436000001,-2.881598215,8.599466946,9.9721170065
631.0,-4.758452049500001,-2.7395819905,8.320780892,9.970679676
632.0,-4.5578971035,-2.894809253,8.431386436499999,10.012395699999999
633.0,-4.496110482,-2.8547182975,8.4703041245,10.006025095
634.0,-4.6179142805,-2.8027469345,8.4244518135,10.00879892
635.0,-4.654692783,-2.665139205,8.437289894500001,9.997874026
636.0,-4.6401011985,-2.6926804525,8.4485799175,10.008070969999999
637.0,-4.5512437555,-2.7104700105,8.481927009500001,10.000184471
638.0,-4.481416124,-2.727262811,8.532624915,10.01637732
639.0,-4.4818215850000005,-2.714366547,8.511310740999999,9.995579239
640.0,-4.5151019495,-2.801020443,8.485823468500001,10.012140944999999
641.0,-4.4536300835,-2.7870033965000003,8.507471466,9.9990855005
642.0,-4.378613396,-2.777397921,8.5567290585,10.005190785
643.0,-4.3896352975,-2.7616782125,8.554411171999998,10.003689075
644.0,-4.376734283499999,-2.766590619,8.5618226785,10.00573622
645.0,-4.371931577,-2.7127592844999997,8.580842732499999,10.005184455
646.0,-4.3897545309999995,-2.7163887355,8.5699257695,10.004622430000001
647.0,-4.39417089,-2.7746842044999998,8.552088506499999,10.007357165
648.0,-4.3125773695,-2.8098198275,8.5730162905,9.9995382265
649.0,-4.337001066,-2.786984249,8.576798365,10.006914519999999
650.0,-4.329255688,-2.7933846740000003,8.576507429500001,10.005096615
651.0,-4.3355082685,-2.7904038435,8.572725361,10.00373012
652.0,-4.3398590724999995,-2.7948994235,8.570752715000001,10.00518086
653.0,-4.330352632,-2.795921956,8.573121200500001,10.00337725
654.0,-4.3401965115,-2.7938091529999998,8.569758837,10.00417127
655.0,-4.3344828645,-2.7990410875,8.571199162500001,10.004390915
656.0,-4.3302429375,-2.7985260095,8.5734979925,10.00438073
657.0,-4.3370487595,-2.797476745,8.569782672999999,10.003851529999999
658.0,-4.3327372925,-2.7984830815,8.572367651,10.00448164
659.0,-4.328945682500001,-2.800338353,8.573044906,10.003938380000001
660.0,-4.3389278725,-2.799384481,8.5694297395,10.004897745000001
661.0,-4.3338962379999995,-2.801940841,8.5703454625,10.004217870000002
662.0,-4.3281492055,-2.8025799475,8.571523487499999,10.00291832
663.0,-4.336953373,-2.803762723,8.568184978,10.004201715
664.0,-4.3306101755,-2.806218947,8.571113309000001,10.004652085
665.0,-4.327114263,-2.8062475765,8.571490108999999,10.003470700000001
666.0,-4.335813505,-2.805341363,8.569186521999999,10.005007595
667.0,-4.329716328,-2.8108425335,8.570479730999999,10.005018945
668.0,-4.333910546,-2.805088612,8.5706363865,10.00535446
669.0,-4.3374636905,-2.805012293,8.5685474235,10.00508333
670.0,-4.3284592115,-2.8100105835,8.572486879500001,10.00596272
671.0,-4.3372967645,-2.805804006,8.5697540705,10.006266459999999
672.0,-4.3295418095,-2.8092672115,8.5715591645,10.005429405
673.0,-4.3325894435,-2.8056609405,8.570865325,10.005138814999999
674.0,-4.3217652645,-2.7927869679999997,8.604441161,10.025689005
675.0,-4.2459211705,-2.7288033135000003,8.6414179155,10.007443535499998
676.0,-4.250022795,-2.7233758210000003,8.6396008205,10.006172576
677.0,-4.226715094,-2.6948886375,8.6173853,9.969403984
678.0,-4.3294463715,-2.6962764889999997,8.6200847455,10.0166908115
679.0,-4.436117101000001,-2.6646940385,8.573502762499999,10.01462845
680.0,-4.4664022965,-2.542766206,8.615100839,10.032105317
681.0,-4.363637659,-2.482429463,8.622006762,9.977330749
682.0,-4.451331733,-2.4931769724999997,8.627288229,10.024011535
683.0,-4.3137314565,-2.369510885,8.7085651555,10.00353307
684.0,-4.3025808735,-2.4202517869999998,8.7046686185,10.007083875
685.0,-4.3161019,-2.498840691,8.673801574,10.0054837395
686.0,-4.331091874,-2.520269265,8.668121323000001,10.01249768
687.0,-4.2638730015,-2.5609945405000003,8.6855102405,10.008936295
688.0,-4.3877657645,-2.4650834445,8.6515574965,10.009492805
689.0,-4.4661320655,-2.4617399245,8.6144264945,10.01073895
690.0,-4.493134387,-2.409081975,8.613021364,10.00879961
691.0,-4.388395265,-2.421076856,8.6610245855,10.006675105
692.0,-4.3442456095,-2.492521331,8.6590739285,10.003799737000001
693.0,-4.3242430855,-2.5302752965,8.667281924000001,10.011160105
694.0,-4.3675104165,-2.457977108,8.6629132425,10.008366015
695.0,-4.4742727055,-2.403697626,8.6185962085,10.003899846500001
696.0,-4.656555383000001,-2.3098752449999997,8.547672075000001,10.004317164
697.0,-4.5159890444999995,-2.3873720015,8.613340891,10.01520829
698.0,-4.396345737,-2.485581963,8.6426436095,10.0100634635
699.0,-4.1354666755,-2.5536462755000002,8.740282947,10.00094591
700.0,-4.091037164499999,-2.5855804869999996,8.7618575855,10.009598405
701.0,-4.1370804365,-2.571579269,8.741660107000001,10.007289315
702.0,-4.1448447900000005,-2.5550424195000003,8.7428756975,10.00729389
703.0,-4.2223083164999995,-2.533523221,8.710868735,10.006311839999999
704.0,-4.263302571500001,-2.5210316725,8.695007357000001,10.006727025
705.0,-4.2532517814999995,-2.530714052,8.6972809675,10.006866785
706.0,-4.2497749465,-2.5327982385,8.699479610000001,10.007828270000001
707.0,-4.244633618,-2.5420841205,8.6973286455,10.00613169
708.0,-4.229185758,-2.5600645330000003,8.6959550635,10.00297859
709.0,-4.264803023000001,-2.584230732,8.679992163000001,10.01045135
710.0,-4.214710775,-2.6103475855,8.6901364975,10.0048106535
711.0,-4.187358618,-2.655513105,8.688128633,10.003488715
712.0,-4.268203529999999,-2.6451398065,8.659164536999999,10.01019142
713.0,-4.209741204,-2.678525091,8.672966953500001,10.005837815
714.0,-4.2116918655,-2.6765505935,8.6734391225,10.0065415
715.0,-4.2120686905,-2.675420264,8.6741306675,10.006995960000001
716.0,-4.20490517,-2.6819113110000004,8.6752896215,10.00672415
717.0,-4.209588639,-2.6803040495,8.672280163,10.00565426
718.0,-4.202902053,-2.689313298,8.673324638,10.006168639999999
719.0,-4.204371006,-2.684968446,8.67354401,10.005806445000001
720.0,-4.204995787,-2.6865232445,8.672914494,10.005940840000001
721.0,-4.1986404565,-2.695167926,8.6739988585,10.006536525
722.0,-4.2006509350000005,-2.68880298,8.6759525545,10.007361759999998
723.0,-4.19498017,-2.6932861425,8.675876247000001,10.00612482
724.0,-4.1995893015,-2.6946790135,8.6743412625,10.007100195
725.0,-4.1986716665,-2.690825173,8.674817435000001,10.006090625
726.0,-4.195194805,-2.695599263,8.675132212000001,10.006190395
727.0,-4.1904541175,-2.6933481439999998,8.6793912205,10.007291705
728.0,-4.191145627999999,-2.6899523865,8.679901550499999,10.00710992
729.0,-4.1854700385,-2.6965865135,8.6791623125,10.005881065
730.0,-4.184320769,-2.6852450665,8.6851048945,10.00750442
731.0,-4.182541792,-2.690796557,8.683936384999999,10.007237365
732.0,-4.1779441434999995,-2.69534172,8.684007937499999,10.00660248
733.0,-4.1836330385,-2.6912455215,8.683036851499999,10.007033605
734.0,-4.179441701,-2.6975689935,8.682772697499999,10.006756385
735.0,-4.181020364,-2.695871115,8.683373587999998,10.00747933
736.0,-4.185494010499999,-2.6926327455,8.681289403000001,10.006668845
737.0,-4.1782970535,-2.7007167455000003,8.684022238499999,10.008210649999999
738.0,-4.181745298999999,-2.6944403185,8.6842797915,10.008183005
739.0,-4.1853556965,-2.6960094249999997,8.685500730000001,10.01117365
740.0,-4.188565238,-2.730830241,8.66882241,10.007510415
741.0,-4.175511683,-2.7209338990000003,8.679629702,10.00871392
742.0,-4.1533055695000005,-2.704274659,8.690036327000001,10.003994800000001
743.0,-4.2108095365,-2.6830321015000003,8.6765391875,10.010593915000001
744.0,-4.191819839500001,-2.6873317695,8.677248154499999,10.004390484
745.0,-4.2357435195,-2.7184824755,8.6557687805,10.012698635
746.0,-4.204079929000001,-2.6590376415000003,8.6754088515,10.0003842065
747.0,-4.199350410999999,-2.678312839,8.672506989,10.001014145
748.0,-4.197608108,-2.6826171705,8.672995571,10.0018602
749.0,-4.2042088490000005,-2.6795361885,8.670787346000001,10.00189199
750.0,-4.1944770065,-2.6934514065,8.673080956500002,10.003691795
751.0,-4.173622992,-2.698055464,8.682529436,10.0042489
752.0,-4.185336548,-2.6844438205,8.6818426615,10.004885835
753.0,-4.1825036395,-2.6891082165,8.684260712,10.00704887
754.0,-4.1878435435,-2.6821855660000002,8.681875639000001,10.005354545
755.0,-4.1884986925,-2.686394473,8.6827870005,10.007549545
756.0,-4.1879882985,-2.6853261450000003,8.681980974999998,10.006349615000001
757.0,-4.1942934295,-2.6831608730000003,8.679901554,10.00660539
758.0,-4.1890562605,-2.6873916810000003,8.680848898499999,10.00637122
759.0,-4.1924524715,-2.6833277989999997,8.680612178499999,10.006494625
760.0,-4.1955143755,-2.682917638,8.678289514,10.005653525
761.0,-4.1904445765,-2.6876583435,8.679138463,10.005537669999999
762.0,-4.1948275935,-2.683637805,8.6805787925,10.007544724999999
763.0,-4.196382392,-2.6817539235,8.678351531499999,10.005759744999999
764.0,-4.1926241005,-2.6872767975,8.679968325,10.007069285
765.0,-4.19666855,-2.6852116815000002,8.677893652,10.006409380000001
766.0,-4.199682763,-2.6854644555,8.677879358,10.007729274999999
767.0,-4.193549410499999,-2.6866997095,8.679338759,10.006755065
768.0,-4.199873536,-2.682698249,8.676892108,10.006211534999998
769.0,-4.2009037095,-2.6864326275,8.6762148695,10.007059004999999
770.0,-4.199134291,-2.6877251135,8.676839636499999,10.007204465000001
771.0,-4.202739898,-2.6863038560000003,8.6756282175,10.007286295
772.0,-4.1997686105,-2.689136833,8.676014563999999,10.007134664999999
773.0,-4.2029068245,-2.689341914,8.674245125999999,10.006973349999999
774.0,-4.2037414555,-2.690128852,8.673701423,10.007065659999999
775.0,-4.199677989,-2.6933338355,8.6741974475,10.00665059
776.0,-4.2016000305,-2.68992854,8.675399309,10.007582795000001
777.0,-4.2008178615,-2.693543686,8.676448556,10.00913854
778.0,-4.1991438295000005,-2.6908728660000003,8.677173479499999,10.008344395
779.0,-4.202339199000001,-2.6992096400000003,8.6746123585,10.009714209999999
780.0,-4.1852649369999995,-2.7215634494999996,8.674025748,10.008104594999999
781.0,-4.3083707024999995,-2.819988048,8.567784311499999,9.9988954485
782.0,-4.5505332775,-3.01687537,8.400581307,10.019334525000001
783.0,-4.512249880000001,-2.8921527355,8.438440254500001,9.997315398000001
784.0,-4.343506416,-2.9017772665,8.5357678725,10.00730776
785.0,-4.302632796999999,-2.917201633,8.549107184499999,10.00549999
786.0,-4.290414334499999,-2.93283509,8.552679892,10.00787256
787.0,-4.295455507,-2.931242136,8.549160153999999,10.00656133
788.0,-4.2885829145,-2.9441574585,8.5479821155,10.00640491
789.0,-4.292612988,-2.9425072730000004,8.5474574775,10.007192745000001
790.0,-4.2963235235,-2.9403658485,8.5462174685,10.007096905000001
791.0,-4.291444508,-2.944987321,8.546217459000001,10.00636276
792.0,-4.294924739000001,-2.942689767,8.5449134245,10.006065934999999
793.0,-4.2955079695,-2.942984206,8.545110998999998,10.006571635
794.0,-4.286923191,-2.9501286495,8.5462365605,10.005955154999999
795.0,-4.291783130000001,-2.947572293,8.5448152915,10.00607082
796.0,-4.290180637500001,-2.9493798655,8.545072830999999,10.00613736
797.0,-4.287228428,-2.949570639,8.5461363985,10.00583595
798.0,-4.291654358000001,-2.9497423339999997,8.5451205375,10.006916775
799.0,-4.2854351625,-2.955370134,8.546341465000001,10.006953825
800.0,-4.2881298295,-2.9518885289999997,8.545716689999999,10.006547055
801.0,-4.289145695,-2.951692987,8.5449011355,10.00622799
802.0,-4.2835751275,-2.9551125899999997,8.545974231999999,10.00576768
803.0,-4.288215677,-2.9521079175000002,8.545339915,10.006326475
804.0,-4.287600435,-2.9540347235000004,8.544805749,10.006175800000001
805.0,-4.2848771525,-2.955851835,8.5458883955,10.006470375
806.0,-4.288373065,-2.9546690435,8.54476283,10.0066573
807.0,-4.286059944,-2.9576450999999997,8.5458406775,10.007465675
808.0,-4.283775438999999,-2.9581315705,8.5455879175,10.00641649
809.0,-4.2884910385,-2.9553509415,8.54385882,10.006137155000001
810.0,-4.2824601935,-2.9592120509999997,8.546058390999999,10.006573735
811.0,-4.2856974755,-2.956829546,8.544157129,10.005631685
812.0,-4.287028116,-2.9571443215,8.543804183999999,10.005993815
813.0,-4.283231735999999,-2.963315823,8.5451252925,10.007321390000001
814.0,-4.2862745635,-2.958598964,8.543188944499999,10.005575355000001
815.0,-4.283451124999999,-2.963864295,8.544634057,10.007158845
816.0,-4.280203217,-2.9654000165000003,8.541615087,10.0036461
817.0,-4.280947231,-2.965242629,8.5346089475,9.9979363775
818.0,-4.2656090705,-3.0005070255,8.524507494,9.9932825085
819.0,-4.261302338,-2.9729927810000003,8.5319762685,9.989596453499999
820.0,-4.2990658825,-2.9678896029999997,8.516776444000001,9.9912877015
821.0,-4.3018082395,-2.9733552464999997,8.511053258,9.989215436
822.0,-4.298188328,-2.9750006605,8.512569914,9.989439952
823.0,-4.277747016499999,-2.9855170145,8.519380493500002,9.9896085655
824.0,-4.283551280499999,-2.975835292,8.517854310499999,9.9879055825
825.0,-4.2849582305,-2.9786062675,8.518746167,9.9900966945
826.0,-4.2836800525,-2.980785848,8.516309062,9.988119398999999
827.0,-4.2884059919999995,-2.9753895320000003,8.514708607,9.987173375000001
828.0,-4.283770669500001,-2.9812866265,8.517634935,9.989437929000001
829.0,-4.29143014,-2.9747574395,8.5156079535,9.989097657
830.0,-4.4753686565,-3.1805872629999996,8.377941339,10.017244515000002
831.0,-4.602859034,-2.84898756,8.38412357,9.980842502
832.0,-4.6432458924999995,-2.9497995755,8.3581765165,10.006591194999999
833.0,-4.8512440405,-3.005333614,8.171252996,9.9688008775
834.0,-6.3902483199999995,-2.7440794575,7.1779311635,10.015967733
835.0,-7.9485731825,-2.0096270846,5.904029844,10.202218105
836.0,-0.49721985299999993,1.1213069307499999,9.127875124,9.423172408500001
837.0,-1.5668197565,3.005835336,9.2048447065,9.817328568499999
838.0,-3.812335586,-0.05349852345,8.9108954035,9.865389861
839.0,-5.6548400725,-4.5654443295,6.7449139505,10.024042938000001
840.0,-6.135542481,-3.261417806,7.1720982475,10.0131043085
841.0,-5.803497221000001,-2.8544702820000003,7.6319519675,10.00392164
842.0,-5.8332291845,-2.8300465645,7.6138332805,10.0022644245
843.0,-5.788826769,-2.852142847,7.631689619,9.9947979
844.0,-5.8270224514999995,-2.8409310065,7.621524537999999,10.0069953745
845.0,-5.8778700875,-2.8248861605,7.575521226,9.9992646445
846.0,-5.9470491590000005,-2.8337427909999997,7.5365462885,10.011433215
847.0,-5.920794013,-2.8199022124999997,7.549981506,10.00066081
848.0,-5.9254918155,-2.7840702615,7.544453827,9.9918209375
849.0,-5.914026366,-2.7509902139999998,7.5875446985,10.008422784
850.0,-5.8622123835,-2.757748344,7.6047428985,9.990357399
851.0,-5.9452940595,-2.737888873,7.5578175315,9.999692484
852.0,-5.963675031,-2.711834038,7.553835147999999,9.9991180995
853.0,-5.913220338,-2.6929570475,7.5832761985,9.9871426495
854.0,-5.8649261395,-2.720347287,7.6132514465,9.9881570615
855.0,-5.9171792285,-2.7209831060000003,7.5725684765,9.989434533
856.0,-5.955297755,-2.7315471364999997,7.55023077,9.9975594675
857.0,-5.977773172499999,-2.701980632,7.535129887,9.990972506
858.0,-5.9454752875,-2.697187456,7.551817721,9.984522459
859.0,-5.9199212464999995,-2.706530559,7.5727645895,9.9869275575
860.0,-5.891462675,-2.7216445675000003,7.591412673500001,9.9875526815
861.0,-5.9384643795,-2.703158653,7.565934928500001,9.992502430999998
862.0,-5.962759322,-2.707269802,7.5518558995,9.997183551500001
863.0,-5.984307153,-2.7128976165000003,7.552208843500001,10.01071074
864.0,-5.9284154115,-2.706211008,7.5661256875,9.986087737
865.0,-5.869471299000001,-2.695179558,7.6207774045,9.989584274999999
866.0,-5.912166322,-2.7309876575,7.586533657,10.000111633500001
867.0,-5.9547516285,-2.720576209,7.5523709265,9.9974257485
868.0,-5.957173473,-2.732644446,7.559991117999999,10.007163404
869.0,-5.958819874,-2.7161884455000003,7.561337323,10.004021080000001
870.0,-5.987645689000001,-2.7054670004999997,7.5505824915,10.009386535
871.0,-5.9850225560000005,-2.7029917125000003,7.546042089,10.0042737285
872.0,-5.9754791439999995,-2.6943497045000004,7.550491864,10.000579698
873.0,-5.9685385029999996,-2.6878215545,7.5569576430000005,9.9998381775
874.0,-5.854881967,-2.703082319,7.642606598,9.999786622
875.0,-6.021887022,-2.6963787244999997,7.533523518,10.01520729
876.0,-6.029072083,-2.675673022,7.5280187615,10.0091953
877.0,-6.013252203,-2.6727112625,7.524966377,9.9981697495
878.0,-5.982251575,-2.6783390684999997,7.5501102745,9.99938548
879.0,-5.881940654999999,-2.727431469,7.6077243370000005,9.995949565
880.0,-5.9186771035,-2.682800559,7.603886988,10.003144051
881.0,-5.9319876275,-2.6621185905,7.5969784535,10.0012292565
882.0,-5.959301581,-2.6471286025,7.5892664685,10.00784621
883.0,-5.9796284449999995,-2.638386433,7.5739998454999995,10.006112268
884.0,-5.9829478995,-2.6333118605,7.574581691500001,10.007023479499999
885.0,-6.024584108,-2.6178306239999998,7.544086653000001,10.003732396
886.0,-6.019337843,-2.619456972,7.550582480999999,10.005455719
887.0,-6.013237869999999,-2.6217080965,7.552132501,10.003860187499999
888.0,-6.017511214,-2.617701862,7.5506778785,10.004300195
889.0,-6.010741761,-2.616167025,7.5561684515,10.004044538999999
890.0,-6.0371274205,-2.6157702745,7.535353992,10.004679181
891.0,-6.0202201644999995,-2.6204394495,7.5460897605,10.004201552
892.0,-6.0264250685,-2.613814853,7.5430231085,10.0040700455
893.0,-6.0382339174999995,-2.6151121245,7.5323159314999995,10.0034431135
894.0,-6.015841935999999,-2.620248695,7.552623737999999,10.0064627345
895.0,-5.980525093000001,-2.682798387,7.541973835,9.9923415865
896.0,-5.946443475,-2.7146098005,7.5619191535,9.9977330525
897.0,-5.998334632000001,-2.681524928,7.5466829815,10.007749301
898.0,-6.033827065500001,-2.6608165695,7.5119270375,9.998282535
899.0,-6.1178578120000005,-2.6644984935,7.4873125675,10.033065868
900.0,-6.1362388039999995,-2.6200674509999997,7.4790473095,10.023987405
901.0,-6.139734713999999,-2.6086926165,7.476142763,10.019962375
902.0,-6.1271007725,-2.6089787700000002,7.477769121,10.014013238
903.0,-6.1222848695,-2.57802429,7.4771126055,10.003864866499999
904.0,-6.113503421000001,-2.5842927390000003,7.4952868509999995,10.014913163500001
905.0,-6.092957090500001,-2.590361914,7.510423239,10.0148365755
906.0,-6.096868018,-2.584140113,7.5069144560000005,10.0118249025
907.0,-6.099238373,-2.5742819185,7.503761927,10.0082290395
908.0,-6.11408051,-2.5780878315,7.494156507,10.011620562000001
909.0,-6.118616147,-2.566803609,7.4874842195,10.007059371
910.0,-6.1241676455,-2.5651534204999997,7.485175869000001,10.008617493500001
911.0,-6.089381339,-2.537877268,7.5204739975,10.006572886
912.0,-6.054015603,-2.525873253,7.544916451,9.998012903500001
913.0,-6.081339100999999,-2.538955507,7.5136964655,9.995003069500001
914.0,-6.158466874,-2.555639754,7.480097253,10.02117307
915.0,-6.12138712,-2.543305138,7.4967367155,10.0072599045
916.0,-6.0912259035,-2.5224441244999998,7.5007239519999995,9.9865237745
917.0,-6.2934692000000005,-2.2573220345,7.4416700945,10.006238565
918.0,-5.970523764999999,-2.3474193784999997,7.6920788935,10.0211502
919.0,-5.909218875500001,-2.266164367,7.727376597999999,9.9886398905
920.0,-6.042450014,-2.2836677869999997,7.6464506705,10.009778874999999
921.0,-5.967395113,-2.282170226,7.7057906195,10.01113653
922.0,-5.9143983625,-2.3116541980000003,7.731511580499999,10.00516353
923.0,-5.9359080305,-2.3117018985,7.7182767115,10.007987
924.0,-5.960922805999999,-2.3076576625,7.706675369499999,10.013880879999999
925.0,-6.036402489,-2.3079055135,7.642792603,10.009845949999999
926.0,-6.040767524,-2.424649634,7.5935521155,10.002518412
927.0,-6.098759515,-2.409513276,7.54785329,10.000969529999999
928.0,-6.1718799755,-2.4644777205,7.490522313,10.014551305
929.0,-6.187795228000001,-2.465836975,7.4784845065,10.016404985000001
930.0,-6.163099648999999,-2.4926930494999997,7.476138017,10.007909893
931.0,-6.1631282665,-2.4719894184999998,7.5141877269999995,10.030603079999999
932.0,-6.157893502,-2.4342035715,7.501851247499999,10.0062912145
933.0,-6.215684238,-2.36564672,7.4721668789999995,10.005272468000001
934.0,-6.19692848,-2.3697159775,7.5057364925,10.02796649
935.0,-6.1771691555,-2.3836519430000003,7.500652392999999,10.008627135000001
936.0,-6.2277955315,-2.362361686,7.4804828935,10.018989915
937.0,-6.2290889840000006,-2.371076459,7.462673281000001,10.0065187815
938.0,-6.2455517455,-2.37251557,7.460933412,10.016431245
939.0,-6.083981309,-2.38002726,7.571829769,10.0010781275
940.0,-6.168851507499999,-2.3820160825,7.5014010675,9.999995999500001
941.0,-6.150900679499999,-2.3939144515,7.5061813115,9.995358101
942.0,-6.1468785605,-2.3951649295,7.508006549999999,9.994553268499999
943.0,-6.151438861000001,-2.3927607775,7.505046694,9.9945604805
944.0,-6.1516001844999995,-2.393298177,7.506475919,9.995861442999999
945.0,-6.145439015,-2.397425817,7.5094182505,9.9952712515
946.0,-6.152027263,-2.3917555665,7.5070637950000005,9.9961963285
947.0,-6.151519936,-2.394106369,7.5061941885,9.995794814500002
948.0,-6.146554986,-2.3984846060000002,7.5090271655,9.9959170735
949.0,-6.151510378,-2.3963097954999997,7.5051258605,9.995513908500001
950.0,-6.1509952089999995,-2.395112696,7.506060648,9.995611888
951.0,-6.1418810055,-2.403320698,7.5100621085,9.9949845775
952.0,-6.1636910855,-2.3525750395,7.5205594394999995,10.00432493
953.0,-6.428116805,-1.959515779,7.3390771515,9.9528404715
954.0,-6.3924734845,-2.4497208905,7.3341906770000005,10.0327242385
955.0,-6.45742385,-2.1419517455,7.29847004,9.9781423825
956.0,-6.3607166905,-2.4039692995,7.332614726999999,10.0002779355
957.0,-6.342068638,-2.4830542175,7.310776011,9.991742027
958.0,-6.358584798,-2.483969924,7.296620665,9.992117414500001
959.0,-6.3550793465,-2.4945959725,7.295337718000001,9.991596819000002
960.0,-6.3588709955,-2.4903805544999997,7.295250072,9.9928934825
961.0,-6.3587708015,-2.4898504975,7.2950944825,9.9925835185
962.0,-6.3546405695,-2.492678705,7.297293140000001,9.992266656
963.0,-6.355541970999999,-2.4466022905,7.311310175499999,9.9917033975
964.0,-6.316037679,-2.4415515795,7.344204184500001,9.989543895
965.0,-6.306832888,-2.436038242,7.356633036,9.991529695499999
966.0,-6.335935291,-2.4726427905,7.323958414,9.9949509715
967.0,-6.3627201025,-2.497910859,7.2910101615,9.9941321405
968.0,-6.367036036,-2.505379408,7.280810364500001,9.991312542
969.0,-6.364156066,-2.504705098,7.2838813915,9.991544655
970.0,-6.3616126735,-2.509442643,7.284982215,9.9919159725
971.0,-6.3655623155,-2.5060995755,7.28372442,9.9926754235
972.0,-6.363897822,-2.5033381385,7.2846305915,9.991583666
973.0,-6.360287446,-2.508574853,7.2859564625,9.991565142999999
974.0,-6.365300003,-2.5024796605,7.28246055,9.990679906
975.0,-6.3651616925,-2.5034859875,7.281749920999999,9.9903256925
976.0,-6.360521313,-2.5065706405,7.283856466,9.989680896
977.0,-6.364980458,-2.502284118,7.2803525095,9.9888908495
978.0,-6.365167143000001,-2.5022344380000003,7.2826869225,9.9906986785
979.0,-6.3585466440000005,-2.505379408,7.285684611,9.989457142500001
980.0,-6.362586259,-2.5009725549999997,7.2860613875,9.9911991105
981.0,-6.3632444249999995,-2.5013779475,7.285684611,9.9914449425
982.0,-6.358291919999999,-2.5024252674999996,7.2880070435,9.990248551
983.0,-6.359332161999999,-2.5008894890000004,7.2865052939999995,9.989430565
984.0,-6.362872418,-2.4982778884999997,7.284716439,9.9897264475
985.0,-6.3583081775,-2.50199319,7.2890135975,9.9908852695
986.0,-6.3591380394999995,-2.499708685,7.290015155,9.9915716295
987.0,-6.362707706,-2.496998026,7.2886180655,9.9921471965
988.0,-6.358427997,-2.500818593,7.291139901,9.992218128000001
989.0,-6.35648677,-2.499175997,7.291422578000001,9.990780613
990.0,-6.3626387215,-2.4974623344999998,7.288636821,9.992233105499999
991.0,-6.3539730915,-2.5026562764999998,7.2933368739999995,9.99144771
992.0,-6.3596722035,-2.497591106,7.2901630045,9.991490073
993.0,-6.359247734,-2.4976006445000003,7.2897862275000005,9.990947168
994.0,-6.358980652,-2.4985831249999997,7.290043771000001,9.991211253
995.0,-6.362676876,-2.4972429455,7.288660668,9.9922197135
996.0,-6.358155162,-2.5007385935,7.291991736,9.992646645499999
997.0,-6.361656241,-2.495573683,7.2886845145,9.9911702825
998.0,-6.3638024355,-2.4959218434999997,7.2890851375,9.9929160715
999.0,-6.3593669665,-2.4998374565,7.2919515,9.993162396999999
1000.0,-6.363521046000001,-2.494562587,7.2907353225,9.9936012255
1001.0,-6.3608838384999995,-2.4962314709999998,7.290866744000001,9.9924354685
1002.0,-6.355982319500001,-2.4992896470000003,7.2949680575,9.993074037
1003.0,-6.3567199935000005,-2.4905086635,7.2942646205,9.990839664
1004.0,-6.359262041499999,-2.4921636185000002,7.294298006,9.992891718
1005.0,-6.3469428845,-2.4829492894999996,7.306545623,9.9917274875
1006.0,-6.2282152525,-2.291675504,7.481617934,10.001463367
1007.0,-6.2343153524999995,-2.312765478,7.4576854205,9.9916737335
1008.0,-6.2400392825,-2.3465095590000002,7.4474721275,9.995451218
1009.0,-6.2552479105,-2.3485927034999996,7.438822754,9.999007145
1010.0,-6.221323725,-2.348478212,7.4596789965,9.9933494055
1011.0,-6.233328109,-2.3426262705000003,7.4575948035,9.9978997875
1012.0,-6.236399552,-2.337265523,7.457280028,9.998325653
1013.0,-6.23036636,-2.3370556825,7.461004868,9.997297742
1014.0,-6.2284538625,-2.336845832,7.463084292,9.997605792000002
1015.0,-6.235073680499999,-2.3358824205,7.458396049,9.9980079905
1016.0,-6.227700309499999,-2.33942606,7.4611384085,9.996289678499998
1017.0,-6.2270516815,-2.3385007995000002,7.462116119999999,9.9963963905
1018.0,-6.2334425725,-2.336216288,7.458109889999999,9.9968553735
1019.0,-6.227121123,-2.341707458,7.4628907909999995,9.9977700035
1020.0,-6.227538152499999,-2.33707477,7.462335508500001,9.996529583000001
1021.0,-6.2318830045,-2.3348331680000003,7.460456396,9.9973107615
1022.0,-6.2264507469999995,-2.33850081,7.463723380999999,9.997222304000001
1023.0,-6.22846817,-2.3373227775,7.4628410565,9.9975452165
1024.0,-6.229879889499999,-2.3364309155,7.460809326,9.9966989315
1025.0,-6.2247433305,-2.337504011,7.464724939,9.9966738865
1026.0,-6.224476248,-2.3393402075,7.464391086,9.99668793
1027.0,-6.229207414999999,-2.3355581225,7.46078071,9.9960545425
1028.0,-6.22351364,-2.339617928,7.4641713,9.9959900245
1029.0,-6.2274633195,-2.335269818,7.463835554999999,9.997180917
1030.0,-6.2291501835,-2.3346900955,7.4627647475,9.997297269499999
1031.0,-6.223388843,-2.3381621775,7.4663989705,9.9972339305
1032.0,-6.2271279905,-2.332772811,7.463389529,9.996056238000001
1033.0,-6.2283155515,-2.333679,7.463155832,9.996832889
1034.0,-6.221385728,-2.3380190945,7.4684163935,9.997461724
1035.0,-6.2275524605,-2.3308507685,7.464667707,9.9968265035
1036.0,-6.2267893695000005,-2.3317521725,7.4653592584999995,9.997078114
1037.0,-6.240715784,-2.3633298895,7.455834923499999,10.0060980485
1038.0,-6.197639189,-2.2735663175000003,7.5020019655,9.993068219
1039.0,-6.1697814435,-2.252485912,7.5297690455,9.9943813375
1040.0,-6.228592108,-2.262511055,7.486420599000001,9.998274241499999
1041.0,-6.2336427825000005,-2.4550010505,7.4259694325000005,10.001617164999999
1042.0,-6.3726161465,-2.48917326,7.2797754175,9.9904777525
1043.0,-6.542861977499999,-2.3000886045,7.1596026875,9.9680124395
1044.0,-6.5080726175,-2.6211401935,7.150833245499999,10.018438750000001
1045.0,-6.459115881000001,-2.619402534,7.1554745185,9.9892204115
1046.0,-6.4607008415,-2.631046425,7.158415063,9.996265979499999
1047.0,-6.504378312,-2.62049191,7.121810512,9.997101771
1048.0,-6.515304831,-2.6384054935,7.124915349,10.009862802
1049.0,-6.5266081415,-2.630187934,7.1218915974999994,10.011895865
1050.0,-6.4870847455,-2.629338998,7.139256720500001,9.998992539500001
1051.0,-6.4719039785,-2.630292876,7.148618893,9.9975987925
1052.0,-6.4870132005,-2.6303024125,7.138894237000001,10.000283297500001
1053.0,-6.457691392,-2.6072856289999997,7.1719408985,9.999237578999999
1054.0,-6.4498219975,-2.62398781,7.175522678,10.001091723
1055.0,-6.4353566305,-2.634480326,7.1837926985,9.999810484
1056.0,-6.4400401085,-2.630817482,7.182762524,10.000665143500001
1057.0,-6.433143672,-2.6345471135,7.183969166000001,9.997264809
1058.0,-6.4355760275,-2.6226857955,7.1817943585,9.993907457999999
1059.0,-6.435680946,-2.634442188,7.181174356,9.996539268500001
1060.0,-6.4395298035,-2.642158961,7.172489378,9.994855179
1061.0,-6.4494642935,-2.6413004935,7.1681588305,9.998133156
1062.0,-6.446803017000001,-2.6256523290000002,7.17340031,9.996582954
1063.0,-6.4574923325,-2.6292873365,7.1677649565,9.9998045215
1064.0,-6.4367219385,-2.615954496,7.1819262434999995,9.9928009565
1065.0,-6.457850472,-2.6275919175,7.164433213000001,9.9970626265
1066.0,-6.450322785,-2.613576383,7.1645341689999995,9.989638705
1067.0,-6.4980637325,-2.6111821859999997,7.1419704605,10.0052012075
1068.0,-6.332849509,-2.5187764980000003,7.3094501115,9.993961671000001
1069.0,-6.366606774,-2.50315218,7.2952709135,10.001633373499999
1070.0,-6.337830619,-2.5283024625,7.2942171635,9.988733056000001
1071.0,-6.3975406225,-2.5801386385000002,7.2501006194999995,10.00798837
1072.0,-6.3820593835,-2.5779065875,7.254664861,10.000461656999999
1073.0,-6.390482013,-2.576065631,7.247696879499999,10.0008298095
1074.0,-6.388013406000001,-2.575048914,7.250342215,10.0015482615
1075.0,-6.396651395999999,-2.582004019,7.243680994,10.003959848000001
1076.0,-6.3817541855,-2.594317857,7.2477206975,9.999915385
1077.0,-6.366768948000001,-2.592286121,7.2484170415,9.9901181695
1078.0,-6.435407913000001,-2.5799122975,7.207465365,10.00192068
1079.0,-6.4332199825,-2.5717637035000003,7.2119889145,10.002418891
1080.0,-6.395444801,-2.5727074840000004,7.242635937,10.001159664
1081.0,-6.401750414,-2.5638315985,7.2436262419999995,10.004314032
1082.0,-6.387816008,-2.571520474,7.255089341,10.0049901175
1083.0,-6.389389872,-2.5744345280000003,7.250696794,10.002883288
1084.0,-6.405723815,-2.538899855,7.2448244735,9.9998811305
1085.0,-6.3865854970000004,-2.5520997625,7.257259388,10.0003448085
1086.0,-6.4011968674999995,-2.5479195335,7.2439969865,9.9978468975
1087.0,-6.3583014355,-2.537359708,7.276696347,9.9908286905
1088.0,-6.334444934,-2.531815965,7.300657347,9.991747944499998
1089.0,-6.37683277,-2.528634901,7.2709249485,9.9963282365
1090.0,-6.324817989,-2.535445254,7.2980371535,9.984646128000001
1091.0,-6.329325011,-2.5583380504999997,7.3075090265,10.000326148500001
1092.0,-6.2111697135,-2.430334109,7.4431628705,9.994957745
1093.0,-6.219284136500001,-2.4080896225,7.4418922005,9.9934311555
1094.0,-6.275257095000001,-2.4415018025,7.3853923475,9.9941899415
1095.0,-6.195297419,-2.4380842745,7.452591814,9.993622120000001
1096.0,-6.098274969,-2.3136000914999997,7.5734609315,9.995660495500001
1097.0,-6.223068205500001,-2.3909141855,7.4527289230000004,9.9993203565
1098.0,-6.2705288075,-2.3925801795,7.409124192,9.9969545595
1099.0,-6.281634785,-2.393721964,7.398007204000001,9.9959668455
1100.0,-6.2753839849999995,-2.404031327,7.3990704595,9.995305125
1101.0,-6.2727450365,-2.4048083855,7.399404047,9.994079068000001
1102.0,-6.176057943,-2.5302562915,7.4637949865,10.013872347
1103.0,-6.1178991775,-2.341306385,7.507611697,9.9649665695
1104.0,-6.2026612095,-2.2692548995,7.5025934655,9.996908038499999
1105.0,-6.226326675999999,-2.5822371669999997,7.395989478000001,10.0070279985
1106.0,-6.242570994,-2.6285568755,7.343798794,9.9906187445
1107.0,-6.318951735,-2.626782707,7.281363605,9.992373364
1108.0,-6.349117695,-2.616414215,7.258156084,9.9918852735
1109.0,-6.360021064,-2.615081136,7.2467071025,9.9901592595
1110.0,-6.361103,-2.6154126619999998,7.24696726,9.991123589499999
1111.0,-6.3644239615,-2.6162896680000003,7.2449512375000005,9.9920060395
1112.0,-6.3629344195,-2.6220372495,7.240252055,9.989157432999999
1113.0,-6.3677514340000005,-2.6168816105,7.2378244684999995,9.9891160305
1114.0,-6.3738037025,-2.612579685,7.2340423985,9.9891098585
1115.0,-6.3741709405,-2.6201199820000003,7.23220144,9.989986145500001
1116.0,-6.378501484499999,-2.6146209545000003,7.23065618,9.9901909105
1117.0,-6.3783393275,-2.6153458914999996,7.2304797155,9.990149585000001
1118.0,-6.377037303,-2.6166383775,7.2330026865,9.991483207
1119.0,-6.3804119005,-2.611921251,7.2306650375,9.990712072
1120.0,-6.383972502,-2.6142461085,7.227123476,9.9910312725
1121.0,-6.382283556499999,-2.617225004,7.2273939645,9.99092786
1122.0,-6.3863040945,-2.6123221415,7.225801011,9.9910613735
1123.0,-6.385378846,-2.6151169640000003,7.22545762,9.990952866499999
1124.0,-6.3845445745,-2.6162523275,7.2261011375,9.9911824795
1125.0,-6.3850974565000005,-2.614349103,7.226349483,9.9912171835
1126.0,-6.3866654465,-2.6133836185000003,7.2265971285,9.9921458435
1127.0,-6.382616065500001,-2.6150844685,7.2274219935,9.990600431499999
1128.0,-6.3836189665,-2.6118356709999997,7.2297881635,9.992102562
1129.0,-6.3836232245,-2.6113260535,7.2294678625,9.991740408
1130.0,-6.3801755165,-2.6139389415,7.23234452,9.9923033445
1131.0,-6.383213574499999,-2.6105718005,7.2323826745,9.9933909625
1132.0,-6.384043436000001,-2.6109581155,7.2327642205,9.9942980175
1133.0,-6.3797748935000005,-2.61507404,7.2351107265,9.994347101
1134.0,-6.382502945500001,-2.610738727,7.2341187080000005,9.994237063
1135.0,-6.384572717499999,-2.6101213835,7.233086585,9.994650772
1136.0,-6.3787494890000005,-2.6157131280000003,7.234323788499999,9.993290524999999
1137.0,-6.3801230535,-2.6135192409999997,7.233322231000001,9.992867654
1138.0,-6.382181792,-2.61297582,7.2316719135,9.992845763
1139.0,-6.369907167499999,-2.627660261,7.238573254,9.9938672815
1140.0,-6.306341651,-2.6012429225,7.304003574999999,9.994281736000001
1141.0,-6.213368416,-2.5640040165,7.39906569,9.9963707255
1142.0,-6.2088471819999995,-2.5404196299999997,7.411337154,9.996587658
1143.0,-6.1825530835,-2.522698276,7.4387171475,9.9961233625
1144.0,-6.1944581385,-2.5192581335,7.4293413425,9.995653714
1145.0,-6.1888208005,-2.5253294795,7.4298468905,9.9940696295
1146.0,-6.1942103235,-2.520310942,7.426824712,9.993895095500001
1147.0,-6.1957887795,-2.5213327885,7.424977413500001,9.9937586265
1148.0,-6.1941719795,-2.5250862444999997,7.426880373,9.995118630499999
1149.0,-6.200089590499999,-2.5213181965,7.422228676,9.994380421999999
1150.0,-6.197572506,-2.521700027,7.4245434055,9.9946364885
1151.0,-6.195531236000001,-2.5239654535,7.425425730000001,9.994597169999999
1152.0,-6.2022893645,-2.518151651,7.421944125,9.9947354025
1153.0,-6.198733911,-2.5214768139999997,7.4238432425,9.994779795
1154.0,-6.1984119065000005,-2.5208653945,7.424595868,9.9949836925
1155.0,-6.2029332230000005,-2.5157431435,7.420737487,9.993632544499999
1156.0,-6.197591583,-2.5214138664999997,7.42437171,9.9944485045
1157.0,-6.200209940500001,-2.517216864,7.4233939985,9.9942867595
1158.0,-6.2042847345,-2.5147701634999997,7.419802966500001,9.9935326495
1159.0,-6.198769605500001,-2.5195967555,7.424014011000001,9.9944541665
1160.0,-6.2036343135,-2.515943455,7.4217867375,9.9948977745
1161.0,-6.2059617424999995,-2.512872012,7.420193784,9.9943866355
1162.0,-6.1986551415,-2.5206460059999998,7.424409864499999,9.9949433045
1163.0,-6.2059522035,-2.5157383745,7.421052262,9.995740245
1164.0,-6.207540388,-2.512857704,7.420656408499999,9.995706755
1165.0,-6.2014738105,-2.5183662705,7.423141225,9.995172829000001
1166.0,-6.205990358499999,-2.5137018739999997,7.421495809,9.9955800385
1167.0,-6.207740699,-2.513105709,7.4191397645,9.9947678885
1168.0,-6.202806723,-2.5193034235000002,7.422628504,9.995854982
1169.0,-6.209867816499999,-2.5121327675,7.41734173,9.9945099215
1170.0,-6.207941010500001,-2.516148536,7.4188965289999995,9.995477176
1171.0,-6.200019168,-2.521056168,7.421367037,9.993630501
1172.0,-6.2092811900000004,-2.516239153,7.4178138925,9.9955292435
1173.0,-6.2110601469999995,-2.512633546,7.417108033,9.995203272000001
1174.0,-6.204493586,-2.5205218145000003,7.4207991475,9.995850899499999
1175.0,-6.2099393565,-2.5139021855,7.4184148274999995,9.995796539
1176.0,-6.2090655675,-2.5137483745,7.419070628,9.995701865000001
1177.0,-6.205380036499999,-2.5166792745,7.4214007065,9.9958802995
1178.0,-6.211727852,-2.511746452,7.417489579,9.9956783475
1179.0,-6.207643363500001,-2.515912909,7.419780292,9.995890191
1180.0,-6.207168380500001,-2.5140404954999997,7.4198837785,9.9952005725
1181.0,-6.213649264,-2.511950738,7.417525443500001,9.996950441
1182.0,-6.209638889,-2.5171167085,7.4192780745,9.997059062
1183.0,-6.2102589009999996,-2.5124570815,7.4187677574999995,9.9958928985
1184.0,-6.213559270999999,-2.5108021265,7.4174561935,9.996554668
1185.0,-6.2081683105,-2.5169922325,7.4200623629999996,9.996695938999999
1186.0,-6.2117866545,-2.511045854,7.418648902999999,9.996399384
1187.0,-6.2147229855,-2.5109070515000003,7.416778949999999,9.996801973
1188.0,-6.208569084500001,-2.515251279,7.421181374,9.9973373195
1189.0,-6.2124447265,-2.5108468105,7.4179328985,9.996226774
1190.0,-6.2130750720000005,-2.5088892879999998,7.41810696,9.996256299999999
1191.0,-6.20766439,-2.5144411185,7.420947336999999,9.9963993175
1192.0,-6.2130728005,-2.5101010365,7.417580196,9.9961682
1193.0,-6.2864868739999995,-2.3473907604999997,7.38034613,9.975528602499999
1194.0,-6.1845950015,-2.3930141415,7.531528995,10.034945225000001
1195.0,-6.30234969,-2.4340255535,7.358893698999999,9.990548033500001
1196.0,-6.6157516235,-2.400630735,7.072786584999999,9.977931869999999
1197.0,-6.7111636820000005,-2.290123265,7.032472253,9.9882746575
1198.0,-7.5950039675,-2.1420903525,6.1177004175,9.990982568500002
1199.0,-7.560249281,-2.6497448465,5.9088137045,9.9600159445
1200.0,-7.963858865500001,-2.3458025730000003,5.474208646499999,9.9479003515
1201.0,-7.423928201,-4.041941855999999,5.2506321465,9.9536184755
1202.0,-6.6603352860000005,-4.8533663695,5.3261735340000005,9.814459684500001
1203.0,-6.9415883295,-4.97596331,5.1448581195,10.044234371
1204.0,-6.0328731925,-2.797953765,7.580300128499999,10.086002409999999
1205.0,-3.537237469,1.25502908205,9.197893390499999,10.08063893
1206.0,-1.1824924000500001,4.060194073,8.8391446755,9.880368557499999
1207.0,-0.09168075493,4.816532877,8.600139405,9.867774439
1208.0,0.10148063267999999,5.4798871535,8.32153166,9.9757027525
1209.0,-0.312195316505,5.809129792,7.9624566735,9.894508166000001
1210.0,0.10439577615000001,5.35942528,8.371793619,9.9720850255
1211.0,-0.93632348555,5.373109991,8.302907854499999,9.934532588
1212.0,-0.930418524,4.980875378,8.637739289999999,10.02593898
1213.0,-3.17871133,3.096182399,8.771727564,9.970679697000001
1214.0,0.450968397645,3.7427381939999997,8.529424634000002,9.388765367000001
1215.0,-4.5401218255,-3.690838382,7.8826038555,10.21013823
1216.0,-5.8354816045,-4.64127169,6.765649242,10.07777827
1217.0,-6.217375831,-3.1293207580000004,7.138149134,9.97633413
1218.0,-5.9547148045,-3.1668345395,7.3701141615,9.9905076605
1219.0,-5.864156503,-3.125204166,7.465221424,9.994358128
1220.0,-5.76748833,-3.109033722,7.5529736775,9.9989487665
1221.0,-5.7897783385,-3.131338125,7.5203981285,9.994205473000001
1222.0,-5.804742098,-3.1494335089999996,7.5034519245,9.99579087
1223.0,-5.802129788,-3.15102341,7.504614494,9.995643942000001
1224.0,-5.8047260905,-3.151652896,7.502819829,9.996002664
1225.0,-5.796953796,-3.153650142,7.5082211505,9.996181904
1226.0,-5.7888745655000005,-3.156998206,7.51237046,9.995670285
1227.0,-5.791457361000001,-3.151829,7.5123382485,9.9955106225
1228.0,-5.7936514379999995,-3.1527918345000003,7.511205932,9.996235534
1229.0,-5.7830867665,-3.1607566394999997,7.5167356765,9.9967903405
1230.0,-5.785693428,-3.1532113649999998,7.5171636280000005,9.9962362605
1231.0,-5.7854120380000005,-3.152152575,7.517297169000001,9.9958401035
1232.0,-5.77942177,-3.1585768515000003,7.5191667429999995,9.995809093
1233.0,-5.7814889115,-3.1519998245,7.5188620175,9.994698816500001
1234.0,-5.78005609,-3.154818626,7.5197819855,9.9954516415
1235.0,-5.778420383,-3.155381501,7.521201899499999,9.9957525425
1236.0,-5.7829892229999995,-3.154131844,7.5184751915,9.995948255
1237.0,-5.7778755635,-3.1570145390000004,7.5218530825,9.9964438425
1238.0,-5.7754632335,-3.1545181585,7.5227580419999995,9.9949414345
1239.0,-5.779215686000001,-3.1530520655,7.5209353665,9.9952760195
1240.0,-5.7737081230000005,-3.1603033455,7.5235402105,9.996344002499999
1241.0,-5.863256942,-3.0517391645,7.5019972425,9.9994476835
1242.0,-6.3247702624999995,-2.7254314085,7.287802128999999,10.0301990225
1243.0,-6.1622554705,-3.1680248525000003,7.1248962805,9.9390603905
1244.0,-6.1862499525,-3.263282609,7.1352504969999995,9.9915463495
1245.0,-6.0429200425000005,-3.264953937,7.252767587,9.989155000499998
1246.0,-5.988380051,-3.2995723679999998,7.286586011,9.992110247500001
1247.0,-5.996304771,-3.291855456,7.282014713000001,9.9909820155
1248.0,-5.9961731225,-3.29574734,7.2803477405,9.990972921000001
1249.0,-6.0071086705,-3.3011724530000004,7.2700269045,9.991819985500001
1250.0,-6.0152122545,-3.2985183410000003,7.2626869415,9.990476848
1251.0,-6.0136450964999995,-3.29874112,7.2624344155,9.9894239885
1252.0,-6.0081100339999995,-3.301637993,7.2679878545,9.9910883895
1253.0,-6.0103036185,-3.2992078085000003,7.2661187535,9.9902467295
1254.0,-6.011167868999999,-3.2997822025,7.264728213,9.989943992
1255.0,-6.010233082,-3.298895097,7.2652289915,9.989452868499999
1256.0,-6.009832459,-3.2985469419999998,7.265887158,9.989575437
1257.0,-6.011392273,-3.2983462985000003,7.266220859,9.9906902485
1258.0,-6.0049610895,-3.303464741,7.269406709,9.9908318355
1259.0,-6.0081727355000005,-3.2986804905,7.268362436,9.990421892
1260.0,-6.0135096059999995,-3.297182902,7.2656868464999995,9.991192035000001
1261.0,-6.008258583,-3.3019713360000003,7.267351339499999,9.990824916000001
1262.0,-6.0101090795,-3.2984420045,7.268319512,9.991476379
1263.0,-6.0118737284999995,-3.29722106,7.265920543,9.9903900985
1264.0,-6.0051585240000005,-3.302104886,7.2701986245,9.991077778000001
1265.0,-6.0079294999999995,-3.2983561815,7.268653364,9.9903806105
1266.0,-6.011310949,-3.29646754,7.267651807,9.9910629
1267.0,-6.000174587,-3.3158739735,7.264089123,9.9881983935
1268.0,-5.978426504,-3.3411228195,7.27817293,9.993838001
1269.0,-6.008368313,-3.3645354385,7.2401709515,9.9920341945
1270.0,-6.0253661835,-3.379444351,7.2123181145,9.987180489
1271.0,-6.013566839,-3.3820770314999997,7.2240745135,9.9894299445
1272.0,-6.0187940145,-3.371722835,7.223964822499999,9.9889975545
1273.0,-6.017496759,-3.3777131025,7.2224004845,9.9891094955
1274.0,-6.0187701675,-3.3759341459999996,7.223115883,9.9897914455
1275.0,-6.021927458,-3.3736448715,7.222104787,9.9901897825
1276.0,-6.0151216365,-3.3799212985000002,7.222834493,9.9887385345
1277.0,-6.021817764,-3.376124919,7.2202304435,9.989606569500001
1278.0,-6.023801802,-3.3735304079999997,7.2196533555,9.9895090035
1279.0,-6.0209974410000004,-3.3785763500000003,7.2196533555,9.989523842499999
1280.0,-6.022251772000001,-3.374899203,7.2204546015,9.989615898499999
1281.0,-6.022919477,-3.376415847,7.218575489,9.989173892
1282.0,-6.0209926715,-3.3782281894999997,7.220177981,9.989783481
1283.0,-6.0234154884999995,-3.3745558109999996,7.2187328735000005,9.9889572265
1284.0,-6.0204632765,-3.378528657,7.220030132,9.989458632
1285.0,-6.020200964,-3.3791772845,7.2203735235,9.989767673
1286.0,-6.024579201,-3.3747847395,7.217965015500001,9.9891815095
1287.0,-6.0200006525,-3.3807511605,7.21899042,9.989181181500001
1288.0,-6.0192090395,-3.3792493165,7.219083403,9.9882625225
1289.0,-6.0241153655,-3.3754396695000004,7.217496922,9.9887847965
1290.0,-6.019294793,-3.3797972965,7.2191621155,9.988556233
1291.0,-6.0200769235,-3.378758663,7.218393025,9.988119810499999
1292.0,-6.024388428,-3.3771455535,7.217449929000001,9.989492107
1293.0,-6.031618606,-3.3810869625,7.206922351999999,9.9875892475
1294.0,-6.02641891,-3.3756982915,7.215469109,9.988797701500001
1295.0,-6.013423758,-3.3873232855,7.2209887655,9.988889224000001
1296.0,-6.0210117489999995,-3.378037417,7.219405351000001,9.989171107499999
1297.0,-6.0158895165,-3.4177563324999998,7.200828842,9.986348939500001
1298.0,-6.0676998655,-3.5481216015,7.09358763,9.986318067500001
1299.0,-6.1336984585,-3.7011767505,6.948949283499999,9.980469614
1300.0,-6.089229165,-3.699231626,6.993263525,9.983428027
1301.0,-6.0920610865,-3.7096124465,6.9861044875000005,9.9840040125
1302.0,-6.0840764865,-3.719888309,6.985808278,9.982739588
1303.0,-6.08829743,-3.716771368,6.983011980000001,9.982194763999999
1304.0,-6.0853403565,-3.723312682,6.981396656,9.981700177499999
1305.0,-6.0857219019999995,-3.7183239715000003,6.9837574705000005,9.981723953500001
1306.0,-6.0882496425,-3.711522919,6.985011801500001,9.981611927
1307.0,-6.082078141,-3.719988465,6.987000609000001,9.982393964
1308.0,-6.0862658905,-3.713089301,6.986486468500001,9.982016966
1309.0,-6.08566467,-3.712586478,6.9880927835,9.982587619
1310.0,-6.0812578175,-3.7169265605,6.9894234245,9.9824485945
1311.0,-6.0849570315,-3.71307768,6.989046950500001,9.983007245
1312.0,-6.086295377,-3.7116902615000003,6.9889045715,9.9832072465
1313.0,-6.0787539235,-3.7180855055,6.9905442145,9.982139992499999
1314.0,-6.0841527955,-3.7127343269999997,6.9869242995,9.980903005
1315.0,-6.085091443,-3.7151169435,6.986038171000001,9.981741714
1316.0,-6.081278371,-3.7197334765,6.987158072,9.9819209985
1317.0,-6.087461512,-3.7136723125,6.9840338635000005,9.981246392
1318.0,-6.0842958750000005,-3.7160919295,6.984730412,9.980704834
1319.0,-6.0829804695,-3.7192136015,6.985488431,9.9815961455
1320.0,-6.085965137500001,-3.7139743505,6.985679507,9.981597883
1321.0,-6.0830367745,-3.7193922995,6.985975205,9.9820378855
1322.0,-6.086351453,-3.7156817675,6.98361916,9.981027242500002
1323.0,-6.087705939999999,-3.7151714499999997,6.983027764,9.981249501
1324.0,-6.083585246,-3.721962964,6.983724085,9.981754358
1325.0,-6.0870528835,-3.7156463955000003,6.9830294295,9.981029183499999
1326.0,-6.0872433155,-3.7142700485,6.9824936,9.980258060499999
1327.0,-6.084205258000001,-3.7212857205,6.983499927,9.9817232895
1328.0,-6.089194479,-3.715203151,6.982971554000001,9.982129892
1329.0,-6.089966598,-3.7160060815,6.981501581,9.981871873
1330.0,-6.086775922499999,-3.7197356910000003,6.9819689745,9.981641958
1331.0,-6.0919941275,-3.7162262085,6.9802738025,9.9823322185
1332.0,-6.088297336,-3.718881982,6.98122973,9.9817345085
1333.0,-6.088879193,-3.7203509335,6.9803474055,9.982019589
1334.0,-6.093505435,-3.716049005,6.978930917,9.982249522
1335.0,-6.089066106000001,-3.7218565630000002,6.979028177,9.981772732
1336.0,-6.0922701805,-3.7181952000000003,6.978511216499999,9.982002117
1337.0,-6.0953493645000005,-3.7165295335,6.9774520865,9.982520471
1338.0,-6.0901478325,-3.723851615,6.977485812499999,9.982098026500001
1339.0,-6.095165160500001,-3.7173748765,6.976884878,9.9823265845
1340.0,-6.095350097,-3.718326167,6.9767417604999995,9.982694077
1341.0,-6.083661588,-3.7139171185000004,6.985441041,9.98000676
1342.0,-6.087348251,-3.7124100130000004,6.985822586499999,9.981961156499999
1343.0,-6.0654717315,-3.7213175224999997,6.9985015095000005,9.980894918
1344.0,-6.116007251,-3.7562925785,6.938696921,9.983050135500001
1345.0,-6.1147627995,-3.7550335905,6.9409727960000005,9.983371671
1346.0,-6.1054573665,-3.7629695905,6.943113313,9.982152943500001
1347.0,-6.111337941,-3.757041323,6.9416300535,9.9824868695
1348.0,-6.111690933,-3.7525581685000002,6.9410148110000005,9.980588856499999
1349.0,-6.06380226,-3.7675291095,6.9748913035,9.9806511505
1350.0,-6.1075478705,-3.745675936,6.9572268135,9.98675582
1351.0,-6.0947263085,-3.7503307364999996,6.9592309505,9.982063000499998
1352.0,-6.099028327999999,-3.7509318225,6.955980942,9.982651282500001
1353.0,-6.10055927,-3.746548816,6.9558855555,9.9818741025
1354.0,-6.095112697,-3.7512084435000004,6.9574308155,9.9813733535
1355.0,-6.0981316825,-3.7503785814999997,6.9562623325,9.982090838
1356.0,-6.1017706895,-3.746415275,6.9552512360000005,9.9821216665
1357.0,-6.0956800005,-3.7501130700000003,6.9599776715,9.983083314
1358.0,-6.1012845585,-3.744535746,6.9573277265,9.9825670205
1359.0,-6.099271569,-3.7433533705000004,6.9581986765,9.981499788499999
1360.0,-6.096362355,-3.752329258,6.960359179,9.9846002415
1361.0,-6.0939299785,-3.7428430529999996,6.9612605809999994,9.980184175
1362.0,-6.080742777,-3.7492721035,6.9702316745,9.980825035999999
1363.0,-6.137631443,-3.681495244,6.953849068,9.979313638499999
1364.0,-6.496176639,-3.132910492,6.887773113,9.980784347
1365.0,-7.327215837000001,-3.0157879530000002,6.066062947500001,10.0187336555
1366.0,-6.958771091,-2.089575306,6.678048561000001,9.913285932
1367.0,-6.8056353529999996,-4.631909428,5.4919613765,9.951504884
1368.0,-6.9341136895,-4.733026756,5.400923183,9.9951061805
1369.0,-6.5487759155,-4.3880995715,6.074514113999999,9.9520087965
1370.0,-6.5187529205,-4.413548676,6.117771871,9.969993105499999
1371.0,-6.4973217475,-4.4097870055,6.1383342249999995,9.96697474
1372.0,-6.463977267500001,-4.4311379335000005,6.156851989,9.9661865405
1373.0,-6.462147491,-4.4312256355,6.162095885499999,9.9682766275
1374.0,-6.460409811,-4.429010816,6.1598233265,9.964760778999999
1375.0,-6.453131827,-4.4385589974999995,6.15926528,9.963952703
1376.0,-6.453508603,-4.434772156,6.1582398955,9.961873411
1377.0,-6.4541095375,-4.4329979685000005,6.155683539,9.9598920545
1378.0,-6.4432450235,-4.444077102,6.155960154000001,9.9579672155
1379.0,-6.447179713500001,-4.437929447,6.155054005,9.9572102835
1380.0,-6.4393341804999995,-4.4377195965,6.1597565460000006,9.954949137
1381.0,-6.4348796335,-4.443647863,6.1636530765,9.95712582
1382.0,-6.4428014765,-4.4357880215000005,6.165665738,9.9599873075
1383.0,-6.437025828,-4.441682903,6.1702681405,9.9617299945
1384.0,-6.4363676615,-4.4416304405,6.172204485,9.962481151
1385.0,-6.4387809385,-4.438349147,6.174317294,9.9638867635
1386.0,-6.4344486915,-4.4457004315,6.1723137779999995,9.963125276
1387.0,-6.4321277355,-4.442069218,6.1736114345,9.9608103425
1388.0,-6.43589073,-4.443185239,6.172948483,9.9633286745
1389.0,-6.425183603000001,-4.459982789,6.18112786,9.968990742999999
1390.0,-6.3317907465,-4.441864137,6.2721169935,9.958038293
1391.0,-6.3485644545,-4.4868293,6.242299196499999,9.970113457
1392.0,-6.37983046,-4.5212000395,6.1878790005,9.9716702345
1393.0,-6.370832393500001,-4.5089398905,6.1977489115,9.966535905
1394.0,-6.353166852499999,-4.4999830915,6.2157769915,9.9623630215
1395.0,-6.3563241395,-4.503393152999999,6.2213714200000005,9.9693985205
1396.0,-6.362362101,-4.492771874000001,6.222625751000001,9.969239041000002
1397.0,-6.3537200899999995,-4.499730314500001,6.222849908500001,9.967008143000001
1398.0,-6.3560490335,-4.496296554,6.223054801,9.967068982
1399.0,-6.361212694000001,-4.489442888,6.2245144025,9.968184671
1400.0,-6.3544099765,-4.4967659730000005,6.227166448,9.968804275
1401.0,-6.3600970705,-4.491875318,6.229125958,9.97145011
1402.0,-6.326174515,-4.476950843,6.2674944109999995,9.967199162
1403.0,-6.329100739499999,-4.479410204,6.2642490770000006,9.968124025000002
1404.0,-6.340523378,-4.4720157875,6.261963112,9.9706240925
1405.0,-6.336173757,-4.4736325875,6.26255928,9.96895976
1406.0,-6.335553745,-4.476522796,6.263155445500001,9.970237547
1407.0,-6.3430089515,-4.464946158,6.2604462605,9.968084872
1408.0,-6.335510821,-4.474290754,6.2630743665,9.969156896000001
1409.0,-6.3391068895,-4.465047809,6.264815169,9.968393952
1410.0,-6.328953004,-4.473766128,6.268768935500001,9.968356541999999
1411.0,-6.308091989,-4.490558909500001,6.2804871595,9.970040538
1412.0,-6.322414264,-4.470317909,6.2785746615,9.96881024
1413.0,-6.322118055000001,-4.471224383,6.279431455,9.969583128
1414.0,-6.3291618320000005,-4.469053225,6.270579367,9.9674930795
1415.0,-6.3363597605,-4.46075065,6.269636951500001,9.967753676000001
1416.0,-6.329744711,-4.468977729500001,6.272250541,9.968880952
1417.0,-6.3313805885,-4.466044597,6.273066095,9.96911793
1418.0,-6.3360545235,-4.461480356,6.27246993,9.969667742999999
1419.0,-6.328738384499999,-4.469683589,6.273461949,9.969319781500001
1420.0,-6.3361308325,-4.46075065,6.272512854,9.9694166995
1421.0,-6.3380385614999994,-4.45948678,6.271902381,9.9696798005
1422.0,-6.332024447,-4.5230761455,6.2439541455,9.977106762999998
1423.0,-6.2623970395,-4.547099263,6.2703761665,9.96052905
1424.0,-6.23953189,-4.437135025,6.3662725895,9.9579791635
1425.0,-6.3338892515000005,-4.4583278345,6.295853913,9.981643593000001
1426.0,-6.313672098,-4.4562102565,6.298162265,9.969308786
1427.0,-6.3065133465,-4.463373776999999,6.30304605,9.9710684655
1428.0,-6.306431851999999,-4.454711497,6.3077524595,9.970119333500001
1429.0,-6.306832891,-4.452313720499999,6.3092032435,9.9702199535
1430.0,-6.296521618,-4.4606981875,6.315493978499999,9.9714333145
1431.0,-6.303037703499999,-4.448292652499999,6.317352083499999,9.971184966500001
1432.0,-6.30065662,-4.4496905935,6.3192808204999995,9.971526177000001
1433.0,-6.292958935,-4.454846229999999,6.322428572,9.9709645095
1434.0,-6.300198765,-4.4469816195,6.322171029,9.9718603635
1435.0,-6.300046147,-4.448002254,6.321894408,9.9720449195
1436.0,-6.2936934104999995,-4.4528240375,6.3251947785,9.972278459
1437.0,-6.2958920675000005,-4.4487844225,6.3252853955,9.9719195065
1438.0,-6.2980485955,-4.4483776865,6.324812532499999,9.972799916
1439.0,-6.290860433500001,-4.4540497535,6.325304473499999,9.9711066995
1440.0,-6.2994785975,-4.448264566500001,6.3231725865,9.9726126535
1441.0,-6.297160707,-4.4444920334999996,6.3247893835,9.970491635
1442.0,-6.29046458,-4.452709574,6.326296492,9.970888083
1443.0,-6.2965550035,-4.4454554365,6.323654288,9.969818948
1444.0,-6.2974468665,-4.4452408165,6.3246033829999995,9.9708882705
1445.0,-6.288585467,-4.453596667999999,6.3296731715,9.9722413775
1446.0,-6.2924056935,-4.446342530000001,6.3280659104999994,9.9703938435
1447.0,-6.298019185,-4.4436097085,6.3262392599999995,9.971560807
1448.0,-6.2898970305,-4.4493996655,6.328962542499999,9.9707445345
1449.0,-6.2940368015,-4.4434332434999995,6.327836982499999,9.9699816455
1450.0,-6.297780719,-4.442398301,6.326906965,9.971293625
1451.0,-6.290617198,-4.449123044,6.328657306,9.9708813225
1452.0,-6.2960455945,-4.4435443955,6.3265523505,9.97048354
1453.0,-6.293083335,-4.4429023165,6.330695414999999,9.970958412
1454.0,-6.282395588,-4.448585549,6.3365592955,9.970479384499999
1455.0,-6.2871546705,-4.446585765,6.3357349795,9.972060131
1456.0,-6.2893937915,-4.443554767,6.3345753715,9.971384133
1457.0,-6.2842883085,-4.4489036555000006,6.3353105095,9.9710182955
1458.0,-6.285628223,-4.445476993,6.335290959,9.9703210935
1459.0,-6.2884474975,-4.442517534,6.3347771215,9.970453233499999
1460.0,-6.28350614,-4.44704839,6.3367031515,9.9705834415
1461.0,-6.2837112205,-4.445913291,6.3375330135,9.970732621500002
1462.0,-6.283274468,-4.4389769185,6.3425485405,9.970555463
1463.0,-6.278274194,-4.4433378569999995,6.345297469,9.971099144
1464.0,-6.280620492000001,-4.4411378565,6.3456124145,9.9717953905
1465.0,-6.2825417525,-4.43997541,6.3453618925,9.972328292
1466.0,-6.275598605,-4.4467860770000005,6.3478013625,9.972543714
1467.0,-6.2810690165,-4.441182124,6.346208409,9.972477051999999
1468.0,-6.2827859725,-4.440128103999999,6.3459031725,9.972894976
1469.0,-6.274673356499999,-4.4485078015,6.347753668999999,9.972699662
1470.0,-6.2825799265,-4.440246675,6.345935384500001,9.972838018000001
1471.0,-6.282991053,-4.441296588,6.3442625255,9.972500634
1472.0,-6.279127903,-4.4463616075,6.345140081,9.972883143499999
1473.0,-6.285505047,-4.440511883999999,6.343529544500001,9.973269367499999
1474.0,-6.2833391265,-4.4377959195,6.337833464499999,9.9670720265
1475.0,-6.279595253,-4.4440484865,6.329410855,9.962145669
1476.0,-6.794181647,-4.2174006065,5.8966517275,9.9488719565
1477.0,-7.374737409,-4.6212671335,5.078807665,10.08963599
1478.0,-6.221676502999999,-1.1039034485,5.6949712214999995,9.929880799500001
1479.0,1.1574486744999999,2.811875437,9.442516897,9.9204133745
1480.0,1.6978276275,2.1807457550000002,9.6366332235,10.025343915
1481.0,1.7362397779999998,2.0333067815,9.666579772999999,10.02960097
1482.0,1.729157332,1.9242466079999998,9.662998032,10.003959404
1483.0,1.8395624585,1.7520691695,9.707057063499999,10.033986315
1484.0,2.356605104,1.551280545,9.6092811305,10.029066195
1485.0,0.7119316143500001,1.5024903310000002,9.9926109615,10.131503873
1486.0,0.35394122843000003,3.6351040484999997,8.962202809,9.6977382805
1487.0,-0.85260182125,3.665830943,9.4065402835,10.140813412
1488.0,0.11837467329999998,3.9601574824999997,9.202705666,10.0328661395
1489.0,1.16301447515,3.476795805,9.2559742235,9.995692258
1490.0,0.4800994417,2.862158441,9.532184992,9.964185724
1491.0,0.81649431925,4.4920136215,8.6716983805,9.906480691999999
1492.0,0.26122833305000004,6.597520778,7.486274818,9.9853657755
1493.0,0.3171947904,5.8501576459999995,8.125756581000001,10.032579665
1494.0,0.3893702432,5.341291506999999,8.2890821355,9.9309515675
1495.0,-2.125803618,1.07047028385,9.613999259,9.974136806499999
1496.0,-6.97702185,-3.5964121305,6.024023640999999,9.991928343
1497.0,-5.9691549905,-4.472831392,6.456708905,9.928357244499999
1498.0,-5.658863317,-2.97576287,7.792106584000001,10.087519539999999
1499.0,-5.4321132635,-2.645195427,7.983106402000001,10.011888554999999
1500.0,-5.3822181035,-2.7472650205,7.9783515335,10.00848918
1501.0,-5.357916980500001,-2.7397855284999997,8.000507467,10.01108783
1502.0,-5.363911846,-2.7324299665,7.992939775,10.006238889999999
1503.0,-5.348648892,-2.7396737460000002,8.0044717785,10.00927013
1504.0,-5.347521367000001,-2.7329907815,8.008781818500001,10.010285249999999
1505.0,-5.350564531,-2.740638631,8.006127048,10.01187902
1506.0,-5.339189076,-2.7329430505000003,8.010388375000002,10.0071101
1507.0,-5.335970466,-2.7325523445,8.0144296755,10.008524375
1508.0,-5.323102152500001,-2.736963589,8.021314889,10.008395315
1509.0,-5.31040039,-2.74035019,8.024185949,10.004876755
1510.0,-5.300525691500001,-2.7528765345,8.0369840675,10.01340113
1511.0,-5.3354090995,-2.75682137,7.9967002095,10.000867233000001
1512.0,-5.4196093765,-2.7601997895,7.955703322,10.014760115
1513.0,-5.3530027675,-2.7495565199999996,7.994677244,10.006488625
1514.0,-5.350387443,-2.7384182315,7.9993903055,10.005789685
1515.0,-5.345866126,-2.7443798829999997,8.0018560585,10.006978465
1516.0,-5.3400952475,-2.7432161685,8.006286817500001,10.00712305
1517.0,-5.3111502354999995,-2.7673155825,8.0170130335,10.007000274
1518.0,-5.267267704,-2.8166685935,8.025998421499999,10.004729895
1519.0,-5.3000997175,-2.808718108,8.010102275000001,10.007084854999999
1520.0,-5.3025940725,-2.8091091735,8.009672999500001,10.00816968
1521.0,-5.2860016035,-2.8081982355,8.0179239375,10.00574357
1522.0,-5.2916246335,-2.8003955840000003,8.0186393375,10.007102145
1523.0,-5.282705416,-2.795387483,8.030784330500001,10.010727555
1524.0,-5.259612948,-2.781089376,8.046396873,10.00713075
1525.0,-5.2712405535,-2.782715698,8.040950302,10.00931495
1526.0,-5.2724233235,-2.7806553845,8.0353033875,10.004892340000001
1527.0,-5.291333697000001,-2.8215857925,8.0159589605,10.01077156
1528.0,-5.2976216595,-2.852181483,7.9903502235,10.0022733385
1529.0,-5.302769859,-2.853104341,8.0012950435,10.01400587
1530.0,-5.2623790945,-2.8449697965,8.0143135365,10.0008602765
1531.0,-5.2765950935,-2.8456325955,8.023392992,10.015761430000001
1532.0,-5.295645104,-2.8256015359999997,7.9999769475,10.00137671
1533.0,-5.2718747795,-2.8323453625,8.0281350545,10.013282895
1534.0,-5.2837060315,-2.8210357430000004,8.015813957999999,10.006452115
1535.0,-5.2844335545,-2.8235536545,8.011191898500002,10.00384373
1536.0,-5.276124276,-2.824018122,8.0175662005,10.00469677
1537.0,-5.273556051,-2.8193127650000003,8.0266559895,10.0093034045
1538.0,-5.2720322145,-2.8225785315,8.021383206500001,10.005195985
1539.0,-5.280159126499999,-2.8196875710000002,8.018047905500001,10.00599806
1540.0,-5.2718462205000005,-2.818509555,8.0173134365,10.000689695
1541.0,-5.270401115,-2.8257064815,8.0267137605,10.009492025
1542.0,-5.2657998655,-2.8112924825,8.025617714500001,10.00213433
1543.0,-5.272017196,-2.820137611,8.023824074,10.006454975
1544.0,-5.265627062,-2.8203600714999997,8.0284403085,10.006853620000001
1545.0,-5.265321817,-2.814226703,8.0288027595,10.00525662
1546.0,-5.2666852980000005,-2.819668966,8.0272862315,10.006289725
1547.0,-5.2640802235,-2.816889524,8.030654501,10.006839
1548.0,-5.2674534285,-2.812118985,8.030097392,10.00682489
1549.0,-5.2610818985000005,-2.817994472,8.0330331495,10.007482775
1550.0,-5.2653977560000005,-2.8109927609999996,8.031717958,10.00672723
1551.0,-5.266202144,-2.808514496,8.033002850999999,10.00748599
1552.0,-5.2569468935,-2.8131774280000004,8.039028199,10.008769795
1553.0,-5.260666968000001,-2.805765871,8.036562467500001,10.00666158
1554.0,-5.257757682,-2.806791275,8.040773789,10.008804385
1555.0,-5.253908839,-2.8086942555,8.0434779845,10.00948957
1556.0,-5.2581735215,-2.8037860305,8.0411721585,10.00849914
1557.0,-5.1900402660000005,-2.6789786785,8.1220822285,10.0048137
1558.0,-5.5914339040000005,-2.6249130815,7.8565871585,10.0062751235
1559.0,-5.4374077755000005,-2.707063054,7.960744338,10.013407985
1560.0,-5.474510063,-2.6607108315000003,7.9372860475,10.00251793
1561.0,-5.4649198210000005,-2.6715285735,7.94368681,10.005228115
1562.0,-5.4629714045,-2.6647885005000003,7.9464080345,10.004528615
1563.0,-5.4655522485,-2.6664634785,7.947514309,10.00726543
1564.0,-5.4690958545,-2.662700484,7.9451773205,10.00634167
1565.0,-5.47875373,-2.656991606,7.9395113665,10.00560783
1566.0,-5.473469322,-2.6610598375,7.941152013,10.005100395
1567.0,-5.480828385000001,-2.6574446915000003,7.9378230265,10.005525424999998
1568.0,-5.4801368335,-2.6603635165,7.938190264499999,10.00621322
1569.0,-5.472510688,-2.663778351,7.9410327805000005,10.005206385000001
1570.0,-5.469164574,-2.6629253425,7.94441792,10.00583398
1571.0,-5.470617268,-2.66308203,7.942349113000001,10.005027235
1572.0,-5.4668590425,-2.6685715185000003,7.943736985499999,10.00553944
1573.0,-5.476054881,-2.6613888825,7.9388209125,10.004751765
1574.0,-5.4748497185,-2.665421306,7.9398586945,10.00598896
1575.0,-5.464350379000001,-2.67250144,7.9445430004999995,10.005858100000001
1576.0,-5.4703740320000005,-2.6661773195,7.943674983999999,10.00677102
1577.0,-5.4628485730000005,-2.6667495619999997,7.947720561000001,10.00602468
1578.0,-5.457058087,-2.675057796,7.9493886315,10.0064107
1579.0,-5.4694042135,-2.6664851865,7.944988818500001,10.007365965
1580.0,-5.4677365975,-2.666883179,7.944237764,10.005964455
1581.0,-5.4580935405,-2.6713390500000003,7.949287226,10.005899800000002
1582.0,-5.4709081965,-2.6662107045,7.944294996,10.00756443
1583.0,-5.4693247815,-2.668337822,7.9441423775,10.007144709999999
1584.0,-5.4693247815,-2.669258301,7.942978663,10.006467834999999
1585.0,-5.4752625864999995,-2.6655859235,7.940155225,10.00649375
1586.0,-5.4609593919999995,-2.676693673,7.9462742644999995,10.006501305
1587.0,-5.479760057,-2.670560326,7.93709809,10.007859885
1588.0,-5.4869188085000005,-2.664579597,7.932381231,10.00644469
1589.0,-5.47615445,-2.6716286535,7.937260247,10.006296429999999
1590.0,-5.480623304,-2.6702312425,7.936373153,10.007666515
1591.0,-5.479988984,-2.6700881625,7.934226958,10.005579319999999
1592.0,-5.475129046,-2.677533074,7.9370456275,10.00714365
1593.0,-5.4777634905,-2.671985293,7.9373259955,10.007324525
1594.0,-5.4766361515,-2.674480708,7.9373460945000005,10.007390755
1595.0,-5.47601137,-2.674552248,7.9379470295,10.007544655
1596.0,-5.483098582,-2.671275724,7.933549715,10.007063304999999
1597.0,-5.4870046565,-2.6756778074999996,7.9303542695,10.007846619999999
1598.0,-5.485526299,-2.671143243,7.9311190455,10.00643135
1599.0,-5.484648611500001,-2.672301128,7.9312127475,10.006333955
1600.0,-5.475815828,-2.677432918,7.935624369499999,10.006365925
1601.0,-5.4806152035,-2.6741305225,7.93388633,10.006731405
1602.0,-5.4805266685,-2.673459581,7.933352526,10.006080285
1603.0,-5.479262476500001,-2.6785134910000004,7.9334742380000005,10.00683718
1604.0,-5.4864609535,-2.670550787,7.9302398055,10.006088665
1605.0,-5.490150497,-2.670836776,7.926858395,10.005510025
1606.0,-5.483480128,-2.675324878,7.928866241,10.004640909999999
1607.0,-5.489565782,-2.6707034055000003,7.924922012,10.003618305
1608.0,-5.489584859,-2.6730212955,7.925542024,10.004739285
1609.0,-5.4819587145,-2.6773279929999996,7.929595946999999,10.004923365
1610.0,-5.486995117499999,-2.6729306785,7.926829741000001,10.00431453
1611.0,-5.485640176,-2.6719632444999997,7.927582158,10.00390956
1612.0,-5.4815867075,-2.679049718,7.9288090095,10.00455728
1613.0,-5.4905554535,-2.67462515,7.925518348000001,10.005681735
1614.0,-5.4846676885,-2.672949756,7.9270920535,10.00325183
1615.0,-5.483499204999999,-2.676955986,7.9277025265,10.004166445
1616.0,-5.5002681395,-2.683895349,7.9146584325,10.00490332
1617.0,-5.4861652575,-2.6986087055,7.917615421000001,10.003457035
1618.0,-5.491654745,-2.6926470535,7.9162847825,10.003812555
1619.0,-5.49324185,-2.690414519,7.9153426015,10.0033366145
1620.0,-5.488173140000001,-2.6980077705000003,7.922055671,10.00791276
1621.0,-5.4911921205,-2.689842692,7.915011379499999,10.001793626
1622.0,-5.4968935225,-2.695249116,7.918567502,10.009195304999999
1623.0,-5.4825787295,-2.701680149,7.913547190999999,9.999101760999999
1624.0,-5.5006070985,-2.708169883,7.909155031,10.0073018
1625.0,-5.491545116,-2.7099310985000002,7.9089209845,10.002595095
1626.0,-5.497147239,-2.7076443985,7.9113935795,10.007015760000002
1627.0,-5.499994309,-2.701277094,7.906124288,10.002689168
1628.0,-5.495684857,-2.712525607,7.911019463000001,10.007229630000001
1629.0,-5.494473414,-2.7037214174999997,7.9102801955,10.0035939
1630.0,-5.497258527,-2.7040343385,7.9094245185,10.004532005
1631.0,-5.492662699,-2.7090861659999996,7.9107130495,10.004392745
1632.0,-5.4987753415,-2.7033589495,7.9078621495,10.003947485000001
1633.0,-5.498408103999999,-2.7054240655,7.9066459725,10.00334262
1634.0,-5.493629244,-2.7085765875,7.9093215615000005,10.00368579
1635.0,-5.5008643045,-2.7006690520000003,7.9049433245,10.002063215
1636.0,-5.4955274334999995,-2.7088055145,7.908334312,10.00400937
1637.0,-5.497487625,-2.7054097575,7.908176924499999,10.004043795000001
1638.0,-5.4987781425,-2.700925536,7.90668954,10.002365135000002
1639.0,-5.4897040925,-2.707508259,7.913318253,10.00440312
1640.0,-5.495298506,-2.7038072655,7.910690357,10.00439432
1641.0,-5.493138212,-2.705989552,7.9110277865,10.00406534
1642.0,-5.493011011,-2.7077849174999997,7.9110149165,10.004472405000001
1643.0,-5.497816708,-2.70525237,7.9084487755,10.004396095
1644.0,-5.487272686000001,-2.7140841315,7.914608449999999,10.00587806
1645.0,-5.429140523,-2.7441279610000002,7.941692858,10.00381951
1646.0,-5.4620278315,-2.726115332,7.9283442095000005,10.006221455
1647.0,-5.4891890055,-2.7285552744999997,7.9111625215,10.008133525
1648.0,-5.4796464195,-2.752059004,7.905458373,10.004831316499999
1649.0,-5.4907534065,-2.7461779685,7.9025253185,10.0069904055
1650.0,-5.4901094845,-2.748438576,7.9032502155,10.007826145
1651.0,-5.4829118215,-2.750980454,7.9052074165,10.006124504999999
1652.0,-5.492194983999999,-2.7464439205,7.901530894,10.007065404999999
1653.0,-5.488001444,-2.7484051904999998,7.9023440444999995,10.00594526
1654.0,-5.4906293405,-2.7487104275,7.9006938595000005,10.006169435
1655.0,-5.494137347000001,-2.744431456,7.899383564,10.005883825000002
1656.0,-5.489059685,-2.749937373,7.9019937075,10.006671404999999
1657.0,-5.4893702394999995,-2.746969625,7.9009180175000004,10.00517567
1658.0,-5.4928375365,-2.7462017640000003,7.8998830745,10.006050295000001
1659.0,-5.486241565,-2.750885238,7.9018289575,10.005254675
1660.0,-5.4921030605,-2.7464449995,7.9000023079999995,10.005807964999999
1661.0,-5.4925732929999995,-2.747045593,7.898862326,10.005331185
1662.0,-5.485263854,-2.7515434040000004,7.901003865,10.00424868
1663.0,-5.491349508000001,-2.747389325,7.897183639,10.00342834
1664.0,-5.4860746385,-2.750179378,7.899167675999999,10.002867864999999
1665.0,-5.4851350825,-2.7509090845,7.900317083,10.003461065
1666.0,-5.488602379,-2.7481381085,7.8997590725,10.004159765
1667.0,-5.482826730999999,-2.75311728,7.90139018,10.003650664999999
1668.0,-5.4866054145,-2.749516991,7.9019823334999995,10.005199365
1669.0,-5.4879442125,-2.7484671914999996,7.901027712,10.004890945
1670.0,-5.481930098,-2.7538374475,7.902577741,10.004295385
1671.0,-5.4893559320000005,-2.7482191875,7.8993155255000005,10.004246245000001
1672.0,-5.4888026905,-2.7492207445,7.8994681435,10.0043375
1673.0,-5.4842575270000005,-2.7538565249999998,7.901910036,10.005049355
1674.0,-5.4848686435000005,-2.751196266,7.9025286855,10.00514025
1675.0,-5.4913447390000005,-2.7505752315,7.8982996595,10.00518261
1676.0,-5.4887130955,-2.7531433974999997,7.9005860575,10.00625029
1677.0,-5.490443337,-2.74658331,7.9010086345,10.005729689999999
1678.0,-5.486041253,-2.7496499835,7.9007844765,10.003980330000001
1679.0,-5.483069966,-2.752740504,7.9028114380000005,10.004804915000001
1680.0,-5.479576249,-2.751589432,7.9046513925,10.0040262
1681.0,-5.46708797,-2.7631376249999997,7.9096554139999995,10.004331485
1682.0,-5.4746234975,-2.7523160339999997,7.9115297575,10.006967715
1683.0,-5.418068882,-2.814937325,7.920243312,10.0004958075
1684.0,-5.4483621945,-2.8134245035,7.908176426,10.00696112
1685.0,-5.4393019030000005,-2.8203552920000003,7.908878015,10.004538759999999
1686.0,-5.4534429410000005,-2.8158530235,7.900665243500001,10.00447982
1687.0,-5.4500328765,-2.8157624114999997,7.9036269919999995,10.004935195
1688.0,-5.450929509,-2.8162298095000002,7.902739898,10.004853
1689.0,-5.4515161355,-2.8148133079999997,7.9031405215,10.005090899999999
1690.0,-5.4438128105,-2.8235425295,7.906459685,10.005978639999999
1691.0,-5.448702235500001,-2.8180946295,7.903331294,10.004631925
1692.0,-5.4502427265,-2.816239344,7.901857574,10.003784655
1693.0,-5.4450782135,-2.8229663804999996,7.9044405394999995,10.004909390000002
1694.0,-5.4494191475000004,-2.8182249885,7.9027885184999995,10.00463045
1695.0,-5.4483249295,-2.8186453905,7.903852191,10.00499423
1696.0,-5.4426976595,-2.8214856425,7.9049719405,10.003616315
1697.0,-5.450724428,-2.8200834475,7.90251574,10.005649545
1698.0,-5.445678486,-2.8210516235,7.904499778,10.004742735
1699.0,-5.44431446,-2.824433087,7.9061738095,10.006276605
1700.0,-5.4520646070000005,-2.8154714844999997,7.9038893045,10.006165894999999
1701.0,-5.444533848500001,-2.8239990805,7.906345505,10.00640974
1702.0,-5.446603734,-2.822658899,7.906345505,10.007158445000002
1703.0,-5.4514833935,-2.817917437,7.904659304,10.00714589
1704.0,-5.445821565499999,-2.822983204,7.9053296395,10.006020385
1705.0,-5.4539897285,-2.8182696514999996,7.9029161925,10.00723451
1706.0,-5.4549023535,-2.8210516224999997,7.90104202,10.007036375
1707.0,-5.447768395000001,-2.8228065695,7.903411767,10.005516005
1708.0,-5.4534451745000005,-2.8186100229999997,7.9020748995000005,10.006368875
1709.0,-5.4500724125,-2.8242426985,7.9026876815,10.00660341
1710.0,-5.455604731,-2.819365318,7.901469972,10.007280925
1711.0,-5.455818063,-2.8192965095,7.9000643085,10.00626833
1712.0,-5.449579791,-2.8250387985,7.9030785195,10.00686916
1713.0,-5.4574315515,-2.8181609964999996,7.900246357,10.00697185
1714.0,-5.452198148,-2.8245237110000003,7.901876651,10.007201245
1715.0,-5.455498518500001,-2.819339425,7.900608011,10.006535374999999
1716.0,-5.4577973315,-2.8183235485,7.899205831,10.0063958
1717.0,-5.44979441,-2.8256826769999996,7.901776495,10.006138804999999
1718.0,-5.437432329,-2.8348874625000002,7.90370807,10.00358693
1719.0,-5.444114925,-2.9076013974999997,7.884140455500001,10.012892910000001
1720.0,-5.4693438655,-2.980219299,7.818901508,9.9970468245
1721.0,-5.482029905,-2.9581231225,7.829563246999999,10.005451135000001
1722.0,-5.470734211,-2.9313495405000003,7.84691166,10.0047891
1723.0,-5.696575199,-2.628398304,7.8083075235,10.01798668
1724.0,-5.086243983499999,-2.6687510740000002,8.1802271295,10.004891149999999
1725.0,-5.246811955,-2.858648209,8.0388660165,10.017277869499999
1726.0,-5.8605960805,-2.630215499,7.6703335485,10.008248474999998
1727.0,-6.3493931925,-2.2866841645,7.3726994875,9.999291081500001
1728.0,-7.640317031,-1.8198490915,6.346219435,10.131323065
1729.0,-5.4175061289999995,-0.79134089345,8.1746869455,9.85615678
1730.0,-6.3967680275,-2.534396042,7.2445681865000005,9.993485924
1731.0,-6.6391339355,-4.8204148425,5.5005357605,9.959301436499999
1732.0,-6.179792292,-5.637786999499999,5.4247077925,9.98122654
1733.0,-5.7349715655,-5.37089073,6.104556216,9.950917932
1734.0,-5.6588209769999995,-5.3855070795,6.182499282,9.9624478675
1735.0,-5.744976965,-5.3479987165,6.148892201500001,9.971555482500001
1736.0,-5.724951191500001,-5.3770336335,6.138737911,9.969524664
1737.0,-5.734240213,-5.3756795,6.154880533,9.9835335675
1738.0,-5.725171188,-5.357819593,6.156544009499999,9.969469194
1739.0,-5.7118276145,-5.3405842,6.1861168485,9.971258966
1740.0,-5.7240897145,-5.32013467,6.1965740455,9.974519242
1741.0,-5.716642857,-5.308034885,6.2058228675,9.9695620495
1742.0,-5.7225766270000005,-5.309726024,6.1989399259999995,9.969118909999999
1743.0,-5.754640239,-5.300295162,6.1807604865000005,9.970599194
1744.0,-5.752701372500001,-5.303684038,6.1867454715,9.975533590000001
1745.0,-5.7171664485,-5.309606564,6.2173065659999995,9.9781495335
1746.0,-5.7228145295,-5.2973047985,6.223274256,9.9780163865
1747.0,-5.718460122,-5.292597459,6.220779886,9.970634644
1748.0,-5.7295906745,-5.282197999499999,6.221423377,9.9718093405
1749.0,-5.7093745825,-5.281084331500001,6.235593412,9.968509201
1750.0,-5.731489929,-5.2822623535,6.217956436,9.9710181305
1751.0,-5.709016856,-5.301330123,6.226965707,9.974147038
1752.0,-5.677538248499999,-5.2522304675,6.280141842500001,9.96347881
1753.0,-5.637252643,-5.2521928865,6.3253276005,9.9686476785
1754.0,-5.6606101639999995,-5.239772266999999,6.320374231500001,9.9722910145
1755.0,-5.6837113115,-5.229368839999999,6.3019664115000005,9.969078477
1756.0,-5.7533143639999995,-5.2203994510000005,6.2640281125,9.981866404
1757.0,-5.719161235,-5.235327419,6.25974051,9.9674917605
1758.0,-5.758059354,-5.2428024485,6.2381819185000005,9.980593875
1759.0,-5.7554462619999995,-5.2376214574999995,6.2349256964999995,9.9743800995
1760.0,-5.764879976,-5.2263944725,6.231959152,9.971511773500001
1761.0,-5.7599246655,-5.223237194999999,6.2392896035,9.971194976500001
1762.0,-5.764680218500001,-5.2297331955,6.234856345000001,9.974588704
1763.0,-5.7235750245000006,-5.2048806675,6.282481932,9.966647292
1764.0,-5.7398553549999995,-5.2162644415,6.255886887,9.9646331495
1765.0,-5.6983913445,-5.191497791,6.3127638605000005,9.963650494
1766.0,-5.6277856995,-5.2363720444999995,6.337943175,9.9630235665
1767.0,-5.659644879,-5.254710084999999,6.297189323,9.964856376499998
1768.0,-5.6779878285,-5.254977167,6.282008573000001,9.9658398305
1769.0,-5.6815779294999995,-5.251141459499999,6.2837745275,9.966977979
1770.0,-5.682676084500001,-5.2468359355,6.2858860315000005,9.9666673555
1771.0,-5.680714397999999,-5.251069863,6.285939932,9.9678128335
1772.0,-5.683501745,-5.244494445,6.2893981825,9.9681214165
1773.0,-5.682313616,-5.245109441,6.2904121175,9.968407704
1774.0,-5.6807826640000005,-5.248028266,6.2904311945,9.969084110499999
1775.0,-5.685785682000001,-5.242257387,6.2909462815,9.969224036
1776.0,-5.680901897,-5.2498644545,6.2897587205,9.969693971
1777.0,-5.686672776,-5.2442366555,6.290617198,9.9705633155
1778.0,-5.684912896,-5.2420570755,6.291828605499999,9.969177751
1779.0,-5.680992514,-5.2484765825,6.2924486175,9.9707120435
1780.0,-5.6849605895,-5.2425006225,6.2936791025000005,9.970606154999999
1781.0,-5.6811212855,-5.246039459,6.2935837160000005,9.9702195765
1782.0,-5.681750893,-5.245469563,6.2926599435,9.969695577
1783.0,-5.6829730505,-5.2429992625,6.293924325,9.969890079
1784.0,-5.675412408,-5.2518818775,6.2928158555,9.969559330500001
1785.0,-5.681288212,-5.247269944,6.292963704,9.970570184
1786.0,-5.6824090025,-5.2421667695,6.294313422,9.9693765665
1787.0,-5.6790132455,-5.2489725915,6.292124304,9.9696417135
1788.0,-5.6795617175,-5.2434592559999995,6.294294345,9.968421692500002
1789.0,-5.681228557500001,-5.2446346665,6.29604391,9.971094596
1790.0,-5.676676277,-5.251424023,6.2924056935,9.969778941
1791.0,-5.6865583125,-5.2426961645,6.2911370545,9.970015796
1792.0,-5.680987744499999,-5.249468601,6.2901498045,9.9697822695
1793.0,-5.685299211,-5.2441889625,6.29067443,9.9697913735
1794.0,-5.6872226485,-5.242065895,6.2915253565,9.9703083655
1795.0,-5.6821991525,-5.247818416,6.290750739,9.969981467
1796.0,-5.686617398499999,-5.239010785,6.2913966795,9.9682760285
1797.0,-5.6848699725,-5.2419569195,6.292911241500001,9.969784242500001
1798.0,-5.6805751605,-5.2465213685,6.2923317690000005,9.9693718855
1799.0,-5.6859430695,-5.238375159,6.292677545,9.9683656635
1800.0,-5.680754048,-5.2439266495000005,6.293359558000001,9.9687586785
1801.0,-5.681703143,-5.2440554210000005,6.2922006125,9.968634351
1802.0,-5.685139477,-5.2382525575,6.293132864,9.968130323
1803.0,-5.678118676,-5.2474694035,6.292257958,9.968424914
1804.0,-5.6856181315,-5.247394873499999,6.291193756,9.971996636
1805.0,-5.5832747935,-5.2579700085,6.357865558,9.962219280500001
1806.0,-5.7100852584999995,-5.236071577000001,6.2735477965,9.969173999999999
1807.0,-5.653740242,-5.274878751,6.2904475275,9.967891712
1808.0,-5.645274859000001,-5.284437265999999,6.2875076005,9.966302317
1809.0,-5.6481795035,-5.2813753615,6.288909781,9.96720853
1810.0,-5.6484466025,-5.278776081,6.2892579415,9.9662025675
1811.0,-5.642704235,-5.286750387,6.2883422315,9.9665998255
1812.0,-5.647960713,-5.2812847825,6.289172851,9.967202442
1813.0,-5.643946886,-5.2855355915,6.289463362999999,9.967367627
1814.0,-5.6416797875,-5.2851766055,6.2904372695,9.966507975999999
1815.0,-5.654832845,-5.2782423905,6.2857995965,9.967386172000001
1816.0,-5.658304036500001,-5.286546347,6.273757628,9.966143772999999
1817.0,-5.663021711,-5.279529634499999,6.276862475,9.967058988
1818.0,-5.6501873205,-5.3119085575,6.261400332,9.967367302500001
1819.0,-5.582009898500001,-5.503490875500001,6.1364822455,9.955101749
1820.0,-5.635392770499999,-5.4834801275,6.132814467999999,9.971876431
1821.0,-5.649328857,-5.4623234175,6.12665716,9.964330124
1822.0,-5.6501396915,-5.4645459215,6.1241961245,9.9644940455
1823.0,-5.6555052315,-5.459819524,6.1234520895,9.9644886955
1824.0,-5.645334404,-5.469468675,6.125580338000001,9.9653210935
1825.0,-5.652064333,-5.4592453505,6.1286860305,9.9654394615
1826.0,-5.654508377,-5.458708272,6.1279925980000005,9.966107179
1827.0,-5.6488071395,-5.4647320194999995,6.126640265500001,9.9653429485
1828.0,-5.655915413000001,-5.4571630115000005,6.126218339,9.9649665975
1829.0,-5.6493459354999995,-5.4610740635,6.1282702305,9.9646449585
1830.0,-5.6501110400000005,-5.4654520925,6.1266762544999995,9.9664988
1831.0,-5.6552392529999995,-5.462866098,6.1186291055,9.9630448185
1832.0,-5.652185685499999,-5.4780192549999995,6.1112330045,9.965097508500001
1833.0,-5.660970864499999,-5.4649799295,6.114914949999999,9.96517864
1834.0,-5.6630407720000004,-5.4644028415,6.115129554499999,9.966170281
1835.0,-5.6548565525,-5.4670307375,6.1193981675,9.965585073
1836.0,-5.662191819,-5.4585938085,6.117800405500001,9.964143123
1837.0,-5.660021733500001,-5.4607924655,6.1148004794999995,9.9622733165
1838.0,-5.8377172245,-5.4225806594999995,5.9817220685,9.963996791
1839.0,-6.7764397535,-5.374544039,5.0923382365,10.048520965
1840.0,-6.7692905295,-0.9826767161000001,6.444895278500001,9.8911314325
1841.0,0.3351023911,3.310818485,9.137303858,9.724409208
