Time (s),Acceleration x (m/s^2),Acceleration y (m/s^2),Acceleration z (m/s^2),Absolute acceleration (m/s^2),Sound pressure level (dB),Attitude x (m/s^2),Attitude y (m/s^2),Attitude z (m/s^2),Absolute Attitude (m/s^2),Tilt up/down (deg)_x,Tilt left/right (deg)_x,Left Pupil X,Left Pupil Y,Right Pupil X,Right Pupil Y,Blinking,Looking Center,Looking Left,Looking Right,Gyroscope x (rad/s),Gyroscope y (rad/s),Gyroscope z (rad/s),Absolute (rad/s),Linear Acceleration x (m/s^2),Linear Acceleration y (m/s^2),Linear Acceleration z (m/s^2),Absolute Linear acceleration (m/s^2),Event,PositionX,PositionY,Inclination (deg),Rotation (deg),Tilt up/down (deg)_y,Tilt left/right (deg)_y,Tilt up/down (deg),Tilt left/right (deg),isDistracted
0.0,0.06795922491,0.1554710967,9.992903891,9.994344295,-50.91837158,0.0676647001,0.1552810807,9.992846883,9.994282343,0.8913444128,0.3896481724,279.5,181.625,367.125,180.875,8.0,8.0,8.0,8.0,0.002196051014,0.06523265105,-0.0350438204,0.07408232415,0.004965041939,0.007779915584,0.187271893,0.1874991751,73.0,89.08791738013699,83.56351669520548,0.9727649124,23.61100754,66.38899245,89.61035182,89.10865558,23.61100754,0
1.0,0.0685542929849999,0.15756422585,9.9989542165,10.0004306395,-52.003897505,0.0684922917499999,0.15736868345,9.9988492895,10.000322212,0.9027957654,0.3928210413499999,297.0,176.0,380.5,176.5,15.0,15.0,15.0,15.0,-0.00120850220661,0.0023331838005,0.000282231419585,0.00269762036,0.02290467291,0.01624157327,0.19290273905,0.19495109395,4.0,32.7919921875,40.259765625,0.98453963385,23.511929675,66.488070325,89.607178955,89.09720422999999,23.511929675,0
2.0,0.070290327785,0.1573400679,10.00240719,10.00389157,-45.645405194999995,0.070481100825,0.1573829919,10.002564575,10.004050945,0.90120090145,0.40263032525,299.0,177.53333333333333,381.93333333333334,177.8,15.0,15.0,15.0,15.0,0.0002641940732,0.0007002734471499,0.00016127509693,0.00077469392775,0.022007802265,0.010275050171,0.1973933340999999,0.198886361,63.0,549.1206597222222,483.8775421626984,0.98703119345,24.071981955,65.92801804000001,89.59736967,89.098799095,24.071981955,0
3.0,0.069682620345,0.15692733035,10.00404498,10.005518435,-50.147599415,0.069515407765,0.1571229871,10.004026205,10.00550158,0.89869010265,0.3990841941,298.4,178.13333333333333,380.46666666666664,178.33333333333334,15.0,15.0,15.0,15.0,0.0003997967212,0.0006359289276,0.0004945076439,0.0008996969199,0.01810171161,0.0055319592965,0.1991776526999999,0.20007903435,49.0,1128.192681760204,582.7957589285714,0.9833113235,23.942718325,66.057281665,89.6009158,89.101309895,23.942718325,0
4.0,0.0692213691749999,0.1573279538499999,10.00429571,10.005772165,-47.27191944,0.06922583327,0.15710753475,10.00431957,10.005792625,0.90096180355,0.39643267055,295.7142857142857,179.78571428571428,378.5,179.78571428571428,15.0,15.0,15.0,15.0,0.00051022772175,0.00086095861675,0.0004104196571499,0.0010834274314999,0.018138381095,-0.000539920317,0.19907675445,0.1999251534,43.0,1057.3241279069769,574.8806322674419,0.98429666735,23.748769295,66.25123070000001,89.603567325,89.09903819,23.748769295,0
5.0,0.070557410085,0.1570205230999999,10.00652311,10.00800382,-52.396658165000005,0.070710028525,0.15737345325,10.006475415,10.007962735,0.89900100445,0.40399411985,289.73333333333335,180.4,373.8666666666667,179.53333333333333,15.0,15.0,15.0,15.0,0.0002079599933999,0.0007490803844,0.00042865223125,0.0008891209917,0.01996444088,-0.000499485298055,0.2009762995,0.20196694045,0.0,0.0,0.0,0.985606597,24.196550315,65.803449675,89.596005875,89.10099899,24.196550315,0
6.0,0.070246507195,0.1584203008,10.006157745,10.007658395,-50.15536667,0.07014104785,0.1582388565,10.00616261,10.00765968,0.90704702895,0.40222863985,285.2,179.2,369.9,177.2,15.0,15.0,15.0,15.0,0.00035530177075,0.00012609166131,0.00045280105505,0.0006366426266,0.014816276315,-0.001931223486,0.19992636875,0.20049057835,0.0,0.0,0.0,0.99223957805,23.91396376,66.08603624,89.59777135499999,89.092952965,23.91396376,0
7.0,0.0698038566149999,0.15745930075,10.007248035,10.008730165,-48.335551995,0.06981339526,0.1574736088,10.0073148,10.00879721,0.90144753885,0.399650524,282.6875,182.125,366.4375,179.0,16.0,16.0,16.0,16.0,0.0006440393673,-0.00016339713765,0.0003957605997,0.00079415901295,0.011569676035,-0.0050298297215,0.2020828535,0.20248281345,0.0,0.0,0.0,0.98604326675,23.90804534,66.091954655,89.600349475,89.098552455,23.90804534,0
8.0,0.0692029212349999,0.15799823455,10.007352985,10.008839795,-50.197751435,0.0688309138,0.158122237,10.00745791,10.00894404,0.90452366915,0.3962055285,281.1333333333333,184.8,365.8,182.26666666666668,15.0,15.0,15.0,15.0,0.00011777326159,0.00032148917345,0.00053687630945,0.0006618674985,0.0084304570975,-0.0035157857075,0.20323811635,0.2034653660499999,0.0,0.0,0.0,0.98753441395,23.66079169,66.339208305,89.603794465,89.09547632499999,23.66079169,0
9.0,0.22078641285,0.0632794182715,10.00733865,10.010895295,-36.056228285,0.2280787124,0.0622253972449999,10.00878852,10.01227899,0.36236002846,1.2635631479,276.57142857142856,179.28571428571428,351.7142857142857,176.57142857142858,15.0,15.0,15.0,15.0,-0.03897127866969,-0.0846566934905,0.018774755535,0.108741808615,-0.02473984052,0.020989614505,0.21328582465,0.25603434225,0.0,0.0,0.0,1.4466761086,64.492056785,25.5079432145,88.736436845,89.637639965,64.492056785,0
10.0,-1.9831382527,-1.3632546305000002,9.148072985,9.7745698945,-40.81280357,-2.0354768371,-1.3748679395,9.137823703,9.775433899,-8.744330798,-12.7915540085,249.0,219.5,320.0,207.5,15.0,15.0,15.0,15.0,-0.3748447032999999,0.80294838945,0.3977850264,0.99502191935,-0.10991417931,-0.2031600595635,-0.02320280175,0.4923290276,0.0,0.0,0.0,17.5571499635,25.46121765000001,-115.461217655,102.79155401,98.7443308,25.46121765000001,0
11.0,-6.8131254185,-4.7345910885,5.730693459499999,10.18865517,-26.249933045,-6.8153813095,-4.778359194,5.711935698,10.19878145,-28.4865822,-46.60557105,-1.0,-1.0,-1.0,-1.0,15.0,15.0,15.0,15.0,-0.0018716414499999,0.27731995703,-0.38204054485,0.7460064216,-0.22939849656,-0.3883143644699999,0.0560876358,0.61463922825,17.0,759.8738511029412,538.0342371323529,49.92903384,-117.160592,-152.839408,136.605571,118.4865822,-117.160592,0
12.0,-4.6941471985000005,-4.790396982,7.184431748,9.897450874,-40.32698107,-4.67531313,-4.762229343,7.206537576500001,9.890774523,-34.00272952,-33.43561099,308.7142857142857,196.5,395.6428571428572,199.0,15.0,15.0,15.0,15.0,0.58265615555,-0.1684783645499999,-0.1761208934949999,0.70565039575,0.035116415175,-0.09981150665,0.2301561757,0.3873882387,96.0,894.8633626302084,826.435546875,43.12599053,-135.81313825,-134.18686175,123.435611,124.0027295,-135.81313825,0
13.0,-3.2886124965,-2.665461901,9.1136813695,10.050504322,-40.89368935,-3.2889320425,-2.663263242,9.111787946,10.04822521,-16.302437695,-19.83505094,321.3333333333333,195.2,427.6,199.73333333333332,15.0,15.0,15.0,15.0,0.03156111174,-0.024264474875,0.003559723322,0.084525179095,-0.071872185025,-0.008414212035,0.2005106703,0.233847837,78.0,1223.2903645833333,878.7550580929487,24.92093974,-129.08367694999998,-140.916323,109.83505095,106.3024377,-129.08367694999998,0
14.0,-3.3215673325,-2.7700994525,9.006699617999999,9.991392699,-39.75567203,-3.3199233909999997,-2.768101881,9.0060330865,9.989704615,-17.09577144,-20.24342472,300.0,204.6,398.26666666666665,207.06666666666663,16.0,16.0,16.0,16.0,-0.009558092589,0.0041832412385,0.013841381384,0.0192041857075,-0.09295454852,-0.03033123899,0.15924770555,0.1932253303,28.0,1070.113002232143,878.6170479910714,25.6507618,-129.82578030000002,-140.17421969999998,110.24342475,107.09577145,-129.82578030000002,0
15.0,-3.320013711,-2.7858920935,9.0083652075,9.996755427499998,-47.25638757,-3.319431853,-2.7852673105,9.008522596,9.996529393,-17.18461489,-20.231306095,301.1333333333333,209.6,402.73333333333335,211.2,15.0,15.0,15.0,15.0,0.006738540362,-0.005595821444,-0.0021729697259,0.0093106699515,-0.059769170625,-0.056809707295,0.1689764053,0.18809942995,14.0,794.5426897321429,580.5161830357143,25.692656605,-130.00074865,-139.99925135,110.23130605,107.1846149,-130.00074865,0
16.0,-3.2922885595,-2.751664511,9.0276415805,9.995463544,-43.827361465,-3.2921222940000003,-2.7513462339999997,9.027617827,9.9953003755,-16.95146211,-20.0364022,313.0,209.1428571428571,416.42857142857144,212.57142857142856,15.0,15.0,15.0,15.0,0.0008993452876499,0.0002398958685,-0.00097543560505,0.0024524937475,-0.0525250378149999,-0.05434096995,0.17376861875,0.1896436916,87.0,269.5727370689655,140.58212104885058,25.42146365,-129.8886917,-140.1113083,110.03640215,106.9514621,-129.8886917,0
17.0,-3.2872007415000004,-2.745629451,9.032288103,9.9963249095,-43.212557775,-3.2875584425,-2.7454672945,9.0320114825,9.9961482025,-16.908192225,-19.998401945,332.0,197.5,440.5,200.5,16.0,16.0,16.0,16.0,-0.0013347636337,0.0011650003804999,-0.004471139847,0.005878289005,-0.047672357855,-0.036488594335,0.17945015255,0.18951619625,22.0,188.66281960227272,125.24378551136364,25.3697979,-129.87043820000002,-140.12956179999998,109.99840195,106.90819225,-129.87043820000002,0
18.0,-3.260387575,-2.745982375,9.0405199465,9.995076962,-40.287994285,-3.260048951,-2.746354382,9.04090626,9.995418812,-16.89571971,-19.83141314,343.0,203.0,442.0,203.0,17.0,17.0,17.0,17.0,-0.0034302788625,0.0038546870235,0.002461567267,0.0057263881375,-0.035234419275,-0.034667001065,0.1850948963,0.19161357465,1.0,0.0,0.0,25.244336315,-130.1049677,-139.8950323,109.83141315,106.8957197,-130.1049677,0
19.0,-3.282569693,-2.7413227485,9.0304757535,9.99198132,-41.2556884,-3.2803901115,-2.740907817,9.0310289965,9.9916506865,-16.88636033,-19.976162825000003,-1.0,-1.0,-1.0,-1.0,15.0,15.0,15.0,15.0,0.00506849433605,-9.549183185e-05,0.0001167122395,0.0063337497775,-0.04190784409,-0.037139714715,0.17792720645,0.18653945515,1.0,0.0,0.0,25.341565035,-129.86579675000002,-140.13420324999998,109.97616285,106.88636035,-129.86579675000002,0
20.0,-3.290634669,-2.717700306,9.0393753015,9.9962248175,-44.60253249,-3.2929477925,-2.7178624625000003,9.038826828,9.996534100000002,-16.73348619,-20.003195055,-1.0,-1.0,-1.0,-1.0,15.0,15.0,15.0,15.0,-0.002209044426,-0.001230783628,-0.0011034611855,0.011359605895,-0.08065411262,-0.046517703685,0.1668594554,0.19118796465,1.0,0.0,0.0,25.273661214999997,-129.55291935,-140.44708065,110.00319505,106.73348615,-129.55291935,0
21.0,-3.281687383,-2.713364986,9.039108238,9.991862256,-44.021113665,-3.2815824565,-2.713217137,9.0391082385,9.9917876505,-16.708738805,-19.953648815,-1.0,-1.0,-1.0,-1.0,16.0,16.0,16.0,16.0,0.001597896681,-0.00096234547985,-0.00140797402935,0.0030014024625,-0.07360212765,-0.049968038285,0.16359946085,0.1862276508999999,1.0,0.0,0.0,25.22421187,-129.5846152,-140.4153848,109.9536488,106.7087388,-129.5846152,0
22.0,-3.268504945,-2.7073365635,9.045103263,9.99134167,-48.23698648,-3.269191729,-2.7075130285,9.0450555695,9.9915699085,-16.66324053,-19.867630775,330.0,187.0,436.0,194.0,15.0,15.0,15.0,15.0,-0.0023045362568,-0.0002779873332999,0.00194591136785,0.0037791192925,-0.083269991465,-0.04740944631,0.16123375995,0.1876232696499999,0.0,0.0,0.0,25.136985715,-129.63562804999998,-140.3643719,109.86763075,106.6632405,-129.63562804999998,0
23.0,-3.2892523605,-2.715302257,9.035805603,9.991900696,-41.74747602,-3.288367794,-2.7150502359999997,9.0359892315,9.991706489,-16.725782125000002,-20.00272531,-1.0,-1.0,-1.0,-1.0,15.0,15.0,15.0,15.0,0.0022401061074999,-0.00054975459305,-0.0047984968515,0.005395621359,-0.0545525859399999,-0.053785860205,0.1691310666,0.1857708632,0.0,0.0,0.0,25.268935390000003,-129.54016969999998,-140.45983030000002,110.0027253,106.7257821,-129.54016969999998,0
24.0,-3.2653715515,-2.745443484,9.0318350205,9.9887757355,-44.21606201,-3.2661012595,-2.74717475,9.031176854,9.9888966285,-16.90798351,-19.877046285,-1.0,-1.0,-1.0,-1.0,15.0,15.0,15.0,15.0,0.000220692238,0.0041793591965,-0.015300974834,0.0212586256184999,-0.064467938855,-0.058492359555,0.1637114070499999,0.1857935331,0.0,0.0,0.0,25.28364395,-130.05477165,-139.9452283,109.8770463,106.9079835,-130.05477165,0
25.0,-3.570708596,-2.7817094425,8.900172997,9.987340032,-36.98676877,-3.5763125525,-2.7803883385,8.8981794175,9.987293053,-16.85056313,-20.63432918,-1.0,-1.0,-1.0,-1.0,15.0,15.0,15.0,15.0,-0.016617701055,0.05093216096,0.023800809015,0.06002576906,-0.074780053565,-0.047830727365,0.1571438728999999,0.18426587505,0.0,0.0,0.0,25.79230982,-128.8110495,-141.1889505,110.6343292,106.8505631,-128.8110495,0
26.0,-3.5095419760000004,-2.7390764415,8.943740829500001,9.9907579945,-44.781979975,-3.5042003325,-2.738480276,8.9459061055,9.990632287,-17.028079055,-21.42549588,-1.0,-1.0,-1.0,-1.0,15.0,15.0,15.0,15.0,0.019434710175,-0.036257188145,-0.01255929819,0.04489920787,-0.037867786705,-0.03873971611,0.17734277035,0.186616228,0.0,0.0,0.0,26.46252946,-127.97066405,-142.02933589999998,111.42549585,107.02807905,-127.97066405,0
27.0,-3.416106137,-2.690858558,8.9932082925,9.9894109945,-45.886001525,-3.416134753,-2.690963483,8.993222601500001,9.9894617955,-16.657712085,-20.79947863,-1.0,-1.0,-1.0,-1.0,15.0,15.0,15.0,15.0,0.00069284630825,0.0005952324264,-0.001760232792,0.0020406189065,-0.059127864385,-0.045154177955,0.16912050855,0.18477901675,0.0,0.0,0.0,25.80586645,-128.2274687,-141.7725313,110.79947865,106.65771205,-128.2274687,0
28.0,-3.4036152875,-2.6860320045,8.9988790265,9.9889741335,-45.547464615,-3.4033958990000004,-2.6860415435,8.998879024,9.9889018525,-16.619592859999997,-20.717926335,-1.0,-1.0,-1.0,-1.0,15.0,15.0,15.0,15.0,0.0021082474784999,-0.0011416579193,-0.007862160945,0.0085238123685,-0.05931186487,-0.04632607717,0.1675870153999999,0.1837263959,0.0,0.0,0.0,25.725667735,-128.28001195000002,-141.71998804999998,110.71792635,106.61959285,-128.28001195000002,0
29.0,-3.3894027094999997,-2.696710515,9.0035434,9.9912009475,-48.281093575,-3.3896220985000003,-2.696968059,9.0034909365,9.991297562,-16.67383059,-20.628950995,-1.0,-1.0,-1.0,-1.0,15.0,15.0,15.0,15.0,-0.0001909836684999,0.0018270770811,0.00344513312465,0.004587629337,-0.0511377728149999,-0.05056183868,0.1693816185,0.1841735724,0.0,0.0,0.0,25.690717915,-128.50680935,-141.49319065,110.628951,106.6738306,-128.50680935,0
30.0,-3.4071544105,-2.6896243340000003,8.997674181499999,9.990042366,-49.17311603,-3.406972985,-2.6894450835,8.9976925735,9.989948606,-16.64268865,-20.740201990000003,-1.0,-1.0,-1.0,-1.0,15.0,15.0,15.0,15.0,0.000222640272,0.0008628642209999,0.0025694178595,0.008732083912,-0.046865453645,-0.054454701565,0.16968808635,0.18449309335,0.0,0.0,0.0,25.754471305,-128.2877689,-141.7122311,110.74020195,106.6426886,-128.2877689,0
31.0,-3.4012495325,-2.6969573945,8.9998686455,9.9919833235,-47.726046915,-3.401316475,-2.696929904,8.9999425705,9.992065325,-16.68170171,-20.702687365,-1.0,-1.0,-1.0,-1.0,15.0,15.0,15.0,15.0,0.0016509477029,-0.0016382154528499,-0.0011331697525,0.006279803355,-0.067398213205,-0.063729740325,0.16087417755,0.1857038798499999,0.0,0.0,0.0,25.748584425,-128.4120264,-141.5879736,110.70268735,106.6817017,-128.4120264,0
32.0,-3.39987614,-2.688292663,9.000967962499999,9.990170218,-49.17811064,-3.399921658,-2.688230376,9.000907335499999,9.990114314,-16.629152915,-20.692722955,-1.0,-1.0,-1.0,-1.0,15.0,15.0,15.0,15.0,-0.0004628807486,0.0005469899529,0.0025896791053449,0.00304529357415,-0.05784305883,-0.060794009105,0.16297811175,0.18332733095,0.0,0.0,0.0,25.712492465,-128.3335353,-141.6664647,110.69272295,106.6291529,-128.3335353,0
33.0,-3.399375361,-2.6901151729999997,9.001384094999999,9.990865572,-49.61564632,-3.39937538,-2.690277998,9.001331536,9.9908620855,-16.639075665,-20.68905938,-1.0,-1.0,-1.0,-1.0,15.0,15.0,15.0,15.0,0.00089608263525,0.0003431424746,-0.0043464232735,0.0045546464315,-0.059218552375,-0.057202715725,0.1651848233,0.1845690865,0.0,0.0,0.0,25.715273365,-128.35653745000002,-141.6434625,110.6890594,106.6390757,-128.35653745000002,0
34.0,-3.394257879,-2.6946501685,9.0009775105,9.989981725,-48.20046937,-3.394152954,-2.6944307795,9.001115821500001,9.9900115075,-16.66628508,-20.661400575,-1.0,-1.0,-1.0,-1.0,15.0,15.0,15.0,15.0,0.0001697632599499,0.000367113050504,0.0029899554099,0.0031229890477499,-0.05669846616,-0.05905234066,0.16444346155,0.1837290589,0.0,0.0,0.0,25.7101171,-128.4455165,-141.55448345000002,110.6614006,106.66628505,-128.4455165,0
35.0,-3.3977251755,-2.6889174445000004,9.001831201,9.990384459,-48.87869861,-3.397729945,-2.6890462155000003,9.001850278,9.9904378995,-16.631297705,-20.678926195,-1.0,-1.0,-1.0,-1.0,15.0,15.0,15.0,15.0,-0.0001114071393,0.0005082287575,0.000570828961,0.002127537367,-0.054129399425,-0.0587089164399999,0.1657862821,0.1840325342,0.0,0.0,0.0,25.703631594999997,-128.35765594999998,-141.64234405000002,110.6789262,106.6312977,-128.35765594999998,0
36.0,-3.3938568365,-2.6948635665,9.00114047,9.990050729,-49.332840265,-3.3939430275,-2.6949544515,9.001068855,9.990040008,-16.667243040000002,-20.65882109,-1.0,-1.0,-1.0,-1.0,15.0,15.0,15.0,15.0,0.00074214979945,1.1153444350000012e-05,-0.0023943707151,0.003043041819,-0.05529403695,-0.056649232665,0.1650273518,0.18304968045,0.0,0.0,0.0,25.70878614,-128.4510063,-141.5489937,110.65882105,106.66724305,-128.4510063,0
37.0,-3.3912293594999996,-2.691092255,9.001969556,9.9888873475,-50.16328122,-3.3912818225,-2.690996868,9.001869399499999,9.9887891945,-16.64376342,-20.64243678,-1.0,-1.0,-1.0,-1.0,15.0,15.0,15.0,15.0,0.00020795999339,0.00053899834835,0.0026525509298,0.003313431957,-0.052509330595,-0.060032043575,0.1646253986999999,0.1829280213,0.0,0.0,0.0,25.68395522,-128.43357355,-141.56642645,110.6424368,106.6437634,-128.43357355,0
38.0,-3.3954069034999996,-2.692228517,8.999688765,9.988557485,-46.94186745,-3.3953683865,-2.692185593,8.999736687,9.9885760075,-16.65438762,-20.670512,-1.0,-1.0,-1.0,-1.0,15.0,15.0,15.0,15.0,6.018531974999999e-05,0.0005682782685,-0.0014869521497,0.001698233561,-0.052373842585,-0.05693512493,0.1663555418,0.18346608485,0.0,0.0,0.0,25.71019409,-128.41100640000002,-141.58899359999998,110.670512,106.6543876,-128.41100640000002,0
39.0,-3.387890835,-2.7004925875000003,9.001602287,9.9899604195,-46.47266134,-3.3879289889999997,-2.7004878175,9.001640439500001,9.9900064395,-16.6946373,-20.62063373,-1.0,-1.0,-1.0,-1.0,16.0,16.0,16.0,16.0,0.00036923509035,-0.00055915773735,0.000497618553,0.004138284216,-0.0552118273949999,-0.05717172988,0.16525136455,0.18337809245,0.0,0.0,0.0,25.69615406,-128.5559756,-141.4440243,110.6206337,106.6946373,-128.5559756,0
40.0,-3.3917730625,-2.6939061544999996,9.001673833000002,9.9895641535,-47.5559243,-3.392035375,-2.6940826195,9.0017501445,9.989769558,-16.66071926,-20.646087325,-1.0,-1.0,-1.0,-1.0,15.0,15.0,15.0,15.0,-0.00085730446255,0.0012413938335,0.00203609809755,0.0026501059985,-0.05178684469,-0.05532558002,0.1674811044999999,0.18383914435,0.0,0.0,0.0,25.69593627,-128.45826764999998,-141.54173235000002,110.6460873,106.66071925,-128.45826764999998,0
41.0,-3.3500748075,-2.697697765,9.017002417,9.990426575,-46.57948173,-3.3493355625000003,-2.697549916,9.0170167245,9.9901480885,-16.656115370000002,-20.381421585,-1.0,-1.0,-1.0,-1.0,15.0,15.0,15.0,15.0,0.003693411915,-0.009043076648,-0.0071088364745,0.012219108905,-0.054385824625,-0.057409498305,0.16522325845,0.1831934243,0.0,0.0,0.0,25.502052255,-128.84560119999998,-141.15439880000002,110.3814216,106.65611535,-128.84560119999998,0
42.0,-3.3095297995,-2.6814511855000003,9.036242158,9.9898381865,-49.111040895,-3.3095484185,-2.681350801,9.0362521355,9.989826523,-16.527941339999998,-20.115287505,-1.0,-1.0,-1.0,-1.0,15.0,15.0,15.0,15.0,-0.0014749923242,0.0045886245117499,0.004985132067,0.0077979680785,-0.04245711319,-0.05010701929,0.1739982499,0.1863537462,0.0,0.0,0.0,25.238143655,-129.01513225,-140.98486775,110.1152875,106.52794135,-129.01513225,0
43.0,-3.31896932,-2.6824359365,9.033857223999998,9.9910760335,-48.496861665,-3.3190074745,-2.6825265535,9.03403369,9.9912725745,-16.53780819,-20.172942595,308.0,204.0,401.0,190.0,15.0,15.0,15.0,15.0,-0.0014567809732,0.0026652831745,0.00094749119445,0.0058208978074999,-0.03244211371,-0.04308182096,0.17842074045,0.186584348,0.0,0.0,0.0,25.2852375,-128.94561700000003,-141.05438299999997,110.1729426,106.5378082,-128.94561700000003,0
44.0,-3.3200519555,-2.68796358,9.032517036,9.9917096365,-46.892248835,-3.3202713445,-2.687896809,9.0323548775,9.991618022,-16.572344594999997,-20.181744535,300.3333333333333,204.33333333333337,396.0,192.33333333333337,15.0,15.0,15.0,15.0,0.0007734838529,0.0004891303935,0.0004795812155,0.0060980564275,-0.0536043057349999,-0.0526113945349999,0.1693441754,0.18530166115,0.0,0.0,0.0,25.31090857,-128.99414405,-141.00585595,110.18174455,106.5723446,-128.99414405,0
45.0,-3.3184541995,-2.6767413665,9.035936639,9.991260462,-50.664089625,-3.318125115,-2.6767175195,9.036032027,9.991230743,-16.501026825,-20.165801055000003,300.0,206.5,396.5,195.0,15.0,15.0,15.0,15.0,0.001297627917,-0.0010366168919999,0.003702961106,0.0060863233745,-0.04922324956,-0.0594912984,0.16898295585,0.18579518865,0.0,0.0,0.0,25.25951716,-128.89043615,-141.10956385,110.16580105,106.50102685,-128.89043615,0
46.0,-3.3214302845,-2.6773518395,9.034162457,9.9908068,-48.25772563,-3.3214255155,-2.6774090714999996,9.034191073,9.9908463615,-16.50764517,-20.186066935,295.14285714285717,207.07142857142856,391.8571428571428,195.92857142857144,15.0,15.0,15.0,15.0,-0.0003002687697,-0.0006641987525,-0.0013570450504999,0.003683217264,-0.055691887465,-0.06250719608,0.1645441055499999,0.1846999539,0.0,0.0,0.0,25.277864209999997,-128.87171035,-141.12828965,110.18606695,106.50764515,-128.87171035,0
47.0,-3.3254348125,-2.6817725809999997,9.0314756495,9.9908958205,-49.413390335,-3.3255687175,-2.681700793,9.0313993575,9.990852185,-16.53806006,-20.213960745,292.0,208.3571428571429,389.2142857142857,196.8571428571429,15.0,15.0,15.0,15.0,-0.0003068131387,-0.000337828887,0.0036560724845,0.0040573166695,-0.06827963936,-0.05817832721,0.16215800045,0.1853172593499999,0.0,0.0,0.0,25.315009535,-128.88420655,-141.11579345,110.21396075,106.53806005,-128.88420655,0
48.0,-3.3362152325,-2.6814439175,9.028515552,9.9917257495,-48.16102086,-3.336260866,-2.681489684,9.0284944345,9.991734131,-16.541272059999997,-20.280269644999997,297.53333333333336,209.86666666666667,396.06666666666666,199.0,15.0,15.0,15.0,15.0,0.0001655191784,-0.000211143054505,0.00017294632025,0.001063895985,-0.064438793395,-0.06158297781,0.1618982118,0.18481575945,0.0,0.0,0.0,25.36471804,-128.79014815,-141.20985185,110.28026965,106.5412721,-128.79014815,0
49.0,-3.3242346840000003,-2.689876078,9.030242069,9.9915594085,-49.47974823,-3.3241536055000003,-2.6898522309999997,9.0302086825,9.991495805,-16.587432839999998,-20.20979271,297.0,209.6,395.8666666666667,198.86666666666667,15.0,15.0,15.0,15.0,0.0011119493515,-0.00062918507815,-0.0009655285325,0.0052632282535,-0.06111193271,-0.063717039805,0.1634105274,0.18577170115,0.0,0.0,0.0,25.339587465,-128.97878935,-141.02121065,110.20979275,106.5874328,-128.97878935,0
50.0,-3.320953318,-2.6891320635,9.033075042,9.9928283275,-50.613490715,-3.3210725515,-2.6892512965,9.032974887,9.992809522,-16.578183625,-20.18563339,300.85714285714283,209.0,398.7857142857143,199.42857142857144,15.0,15.0,15.0,15.0,-0.00055491365564,0.001310360162725,0.0032658207043499,0.0042969065625,-0.052827696955,-0.065125645155,0.16708619255,0.18697456955,0.0,0.0,0.0,25.31697977,-128.99871385,-141.00128610000002,110.1856334,106.5781836,-128.99871385,0
51.0,-3.32109167,-2.689589918,9.0299177625,9.990143177499998,-46.51992378,-3.3210392075,-2.689527917,9.0300656105,9.990242712,-16.586330585,-20.192895720000003,298.875,205.25,395.75,195.125,15.0,15.0,15.0,15.0,0.00037454019217,0.001421767297,-0.0034313398855,0.00374795689,-0.05111333639,-0.055430994,0.1682765970999999,0.18439841545,48.0,266.2318522135417,96.11246744791669,25.326777665,-129.00231875,-140.99768125,110.1928957,106.5863306,-129.00231875,0
52.0,-3.323524017,-2.691869654,9.0298557395,9.9915121055,-46.933086715,-3.3235287865,-2.6919221165,9.0298843555,9.9915536815,-16.599718285,-20.206614584999997,292.0,200.0,386.0,191.5,15.0,15.0,15.0,15.0,-2.0159386199999994e-05,0.0029125009259,0.0038111851591,0.00550432847065,-0.047532846055,-0.056213411075,0.1693231946,0.1846656046499999,0.0,0.0,0.0,25.34419059,-129.00556315,-140.99443685,110.2066146,106.59971825,-129.00556315,0
53.0,-3.3566470075,-2.680552054,9.020660497,9.9912341945,-48.62800205,-3.3567948569999997,-2.6805854394999997,9.020584188,9.9912238665,-16.549681659999997,-20.41056442,287.42857142857144,201.42857142857144,382.8571428571428,192.57142857142856,15.0,15.0,15.0,15.0,0.0001687022385999,-0.000656771609,-0.00144510974455,0.0030801315629999,-0.064434850025,-0.046978653425,0.16790162195,0.1859297849,15.0,282.6625,206.60546875,25.463747925,-128.6101617,-141.3898383,110.4105644,106.54968165,-128.6101617,0
54.0,-3.349988826,-2.6846429875,9.0227821955,9.992016579,-48.35953253,-3.3496681165,-2.684537776,9.0227919245,9.991889708,-16.60300479,-20.33767266,290.25,200.5,385.25,191.75,15.0,15.0,15.0,15.0,-0.0001580877935565,-0.0015831739615,-0.00222047796025,0.003070728441,-0.07403357445,-0.0468143641,0.16480277075,0.18667389585,52.0,365.8088942307692,295.1325871394231,25.44057578,-128.8143287,-141.1856713,110.3376727,106.6030048,-128.8143287,0
55.0,-3.352120921,-2.678911408,9.0244377945,9.9926853135,-50.09952292,-3.3523927735,-2.678906638,9.0244711805,9.992805388,-16.533563025,-20.377478015,293.0,200.0,388.0,191.0,15.0,15.0,15.0,15.0,0.00027374325664,-0.0011575732259,0.0020074505487,0.0024110962315,-0.0752116139,-0.047860664035,0.16187303785,0.1848005607,0.0,0.0,0.0,25.430828045,-128.630766,-141.36923395000002,110.377478,106.533563,-128.630766,0
56.0,-3.349927035,-2.6790115635,9.024833649,9.992333896000002,-47.789698515,-3.349907958,-2.679006794,9.0247525715,9.992252998,-16.533461345,-20.3644169,291.0,201.0,385.5,192.0,15.0,15.0,15.0,15.0,-6.578326414999997e-05,0.00082441282915,-0.00231090237,0.002679211378,-0.07012190095,-0.043136932885,0.1653770712,0.18478514465,0.0,0.0,0.0,25.42130296,-128.6501076,-141.3498924,110.3644169,106.53346135,-128.6501076,0
57.0,-3.3451672109999997,-2.6891892960000003,9.026607857,9.995075432,-48.456995735,-3.3451004405,-2.689275144,9.0266507805,9.99511493,-16.589743155,-20.334183359999997,298.6666666666667,198.66666666666663,393.6666666666667,192.66666666666663,15.0,15.0,15.0,15.0,-0.001963948708,0.0014472317889999,0.0003204281719999,0.0094919653015,-0.061146960195,-0.05102031048,0.17020104395,0.1880205162,0.0,0.0,0.0,25.430674325,-128.7958989,-141.2041011,110.33418335,106.58974315,-128.7958989,0
58.0,-3.3593607435,-2.6904007035,9.0153617785,9.9900109145,-50.443443335,-3.359513362,-2.6903720875,9.0153474715,9.990041582,-16.61636563,-20.436718685,300.06666666666666,199.6,394.06666666666666,193.66666666666663,15.0,15.0,15.0,15.0,0.00032679427815,0.00102388466215,-0.00059204937755,0.001534034482,-0.060789210455,-0.042241070005,0.1704353302,0.1858191537,0.0,0.0,0.0,25.51964453,-128.69008175,-141.30991825,110.4367187,106.6163656,-128.69008175,0
59.0,-3.3568616295,-2.6968106709999997,9.0177893865,9.9930909385,-49.78758845,-3.3567757815,-2.696858364,9.0178323095,9.993113682,-16.649527675,-20.41772392,299.1333333333333,199.66666666666663,392.46666666666664,193.8,15.0,15.0,15.0,15.0,9.124775219e-05,0.0003639299865999,-0.0026472458187849,0.0027721111555999,-0.056177038995,-0.04450668418,0.1715025296,0.1858869800499999,0.0,0.0,0.0,25.524321265,-128.7773972,-141.2226028,110.41772395,106.64952765,-128.7773972,0
60.0,-3.356985632,-2.691483339,9.0186860455,9.9925042705,-49.477990129999995,-3.3569188614999996,-2.691364106,9.018619275,9.992389462,-16.61689689,-20.41655164,295.5,200.6428571428571,389.5,194.42857142857144,15.0,15.0,15.0,15.0,-4.8806937228e-05,0.00029284162335,0.003959728028,0.0039712316539999,-0.05309483172,-0.0496507656,0.1723089596499999,0.18701907285,0.0,0.0,0.0,25.50534302,-128.7211136,-141.2788864,110.41655165,106.6168969,-128.7211136,0
61.0,-3.3594656785000003,-2.6909014815,9.019100953,9.993555652,-49.723930765000006,-3.3595562955,-2.691035023,9.019234494,9.993742649,-16.61277873,-20.42952843,296.64285714285717,200.1428571428571,390.1428571428572,193.21428571428572,15.0,15.0,15.0,15.0,5.83561215e-05,0.0006567716118,-0.0037602561945,0.0038826901619999,-0.0532479286149999,-0.04733530302,0.1733738203,0.18744819125,0.0,0.0,0.0,25.512452575,-128.69441940000002,-141.30558059999998,110.42952845,106.6127787,-128.69441940000002,0
62.0,-3.353432487,-2.6954132595,9.018457082,9.9921645425,-47.728076535,-3.353418179,-2.695384644,9.0183426185,9.9920487095,-16.640216180000003,-20.397200245,295.8,199.0,389.8,191.8,15.0,15.0,15.0,15.0,-1.8037347249999985e-05,0.000275865296415,0.003092874382,0.003149619107,-0.052211076495,-0.04955034218,0.1714423952,0.18594499035,0.0,0.0,0.0,25.50430388,-128.79150199999998,-141.20849800000002,110.39720025,106.6402162,-128.79150199999998,0
63.0,-3.359618297,-2.6899190015,9.0177607555,9.99213257,-44.734143970000005,-3.359718453,-2.6897997685000004,9.0177750625,9.9921471195,-16.6093805,-20.43316601,295.90909090909093,199.0,389.3636363636364,192.63636363636363,15.0,15.0,15.0,15.0,8.4881629955e-05,0.0006206969208999,-0.00060372059305,0.00087116216325,-0.052072095585,-0.048131812705,0.1707429118,0.18488425595,0.0,0.0,0.0,25.513196545,-128.6829366,-141.3170634,110.433166,106.60938045,-128.6829366,0
64.0,-3.354634356,-2.696381432,9.0181804595,9.992579622,-49.80849951,-3.354553278,-2.6964529720000003,9.0181613825,9.9925544495,-16.64634417,-20.404481125,296.2857142857143,199.0,390.57142857142856,192.1428571428571,15.0,15.0,15.0,15.0,0.0008488162996,0.0001771904016,-0.0017994905552,0.0022075817795,-0.051046263455,-0.054287149795,0.1716826605499999,0.1871603191999999,0.0,0.0,0.0,25.512979825,-128.79154,-141.20846,110.4044811,106.64634415,-128.79154,0
65.0,-3.3559683925000003,-2.689556571,9.019573952,9.9924450995,-49.776433145,-3.3558807705,-2.6895552169999997,9.019604305,9.9924427115,-16.60411141,-20.409032925,296.5,199.0,390.5,193.0,15.0,15.0,15.0,15.0,-4.8921527425e-05,0.000365869532745,0.003471119663,0.003509380094,-0.050419010815,-0.0554193277249999,0.1709237855499999,0.18662369915,0.0,0.0,0.0,25.492804885,-128.709563,-141.29043695,110.40903295,106.6041114,-128.709563,0
66.0,-3.3583067335,-2.691583495,9.01800399,9.992360507,-50.31810508,-3.3583782735,-2.6915978029999996,9.0180421445,9.992422871,-16.618665905,-20.425339665000003,300.0,197.66666666666663,391.6666666666667,190.33333333333337,15.0,15.0,15.0,15.0,-0.0005549136540499,0.0007151277322,-0.0027204562354499,0.00292875867825,-0.05595748559,-0.05710593539,0.1685976506,0.1866083605,0.0,0.0,0.0,25.512697375,-128.71114825,-141.28885175,110.4253397,106.6186659,-128.71114825,0
67.0,-3.364249308,-2.706530548,9.0121567865,9.9931217145,-49.31659006,-3.3642493085,-2.706530548,9.012113862,9.9930830435,-16.716055925,-20.47066506,-1.0,-1.0,-1.0,-1.0,15.0,15.0,15.0,15.0,0.00072043283335,-0.000558096717,0.0036583982421,0.0038349360395,-0.06149033516,-0.06288027385,0.1631091436,0.1853445457999999,0.0,0.0,0.0,25.59952375,-128.81654535,-141.1834546,110.47066505,106.7160559,-128.81654535,0
68.0,-3.3683509245,-2.6996913410000003,9.0119660385,9.9924803325,-50.521530795,-3.3683604635,-2.699686572,9.0119564995,9.992473654,-16.67208287,-20.47525486,-1.0,-1.0,-1.0,-1.0,15.0,15.0,15.0,15.0,0.0002981467252099,-0.00015066489315,0.0003183061109999,0.002241097834,-0.06190509437,-0.06340573335,0.1639909367,0.1864614073,38.0,414.31332236842104,343.5883018092105,25.57842002,-128.7317203,-141.2682797,110.4752549,106.6720829,-128.7317203,0
69.0,-3.3550083755,-2.7016558055,9.0166981935,9.992791593,-48.7781148,-3.3550224165,-2.7016177085,9.0166602295,9.9927517,-16.679693095,-20.40964969,293.0,200.0,387.3636363636364,193.0909090909091,15.0,15.0,15.0,15.0,0.0012979971495,-0.000428792282,-0.0002358605825,0.0060778656285,-0.05461132905,-0.059761671795,0.16832683955,0.1871545916,0.0,0.0,0.0,25.53524456,-128.8431281,-141.1568719,110.40964965,106.6796931,-128.8431281,0
70.0,-3.3535230945,-2.6837856545000003,9.02373672,9.9938309675,-44.047648525,-3.353432477,-2.683799962,9.023779645,9.9938431215,-16.563217365,-20.38675761,291.0,201.125,386.875,194.875,15.0,15.0,15.0,15.0,0.00010504100875,0.0011512071063,0.0043374512974999,0.0045080594,-0.045977170505,-0.055979289705,0.1714434624,0.18613082985,0.0,0.0,0.0,25.453988825,-128.6698879,-141.3301121,110.3867576,106.56321735,-128.6698879,0
71.0,-3.356561147,-2.6773470705,9.023178707,9.992620836,-48.500035305,-3.3565993015,-2.677332762,9.023202552,9.992651314500002,-16.52661407,-20.40485316,-1.0,-1.0,-1.0,-1.0,15.0,15.0,15.0,15.0,-0.0005496085587,0.00050928977885,0.001316726277,0.0017398076405,-0.04890719671,-0.05161214821,0.1739830668,0.18798384795,0.0,0.0,0.0,25.446837505,-128.5775004,-141.4224996,110.40485315,106.5266141,-128.5775004,0
72.0,-3.3510812095,-2.6811911435,9.0247812195,9.993259622,-42.712138795,-3.3510669015,-2.6812531445000003,9.0247716805,9.993262865,-16.5462663,-20.3709644,295.0,203.1818181818182,391.90909090909093,195.27272727272728,15.0,15.0,15.0,15.0,-0.0005018626372,0.00085730446175,-0.00247111644855,0.0030450261165,-0.050219193335,-0.048843451905,0.1732451424,0.1868929238,0.0,0.0,0.0,25.4331647,-128.6631766,-141.3368234,110.37096435,106.5462663,-128.6631766,0
73.0,-3.3489397865,-2.6824979375,9.0254107395,9.993460189,-23.46163234,-3.3489636330000003,-2.682464552,9.0254155095,9.993463485,-16.552800215,-20.35771225,298.57142857142856,204.0,394.2857142857143,196.28571428571428,15.0,15.0,15.0,15.0,7.533244935000003e-05,0.0010663254729,0.00231939053385,0.003089013967,-0.04801832128,-0.04980924889,0.1741860606,0.1874295798,0.0,0.0,0.0,25.42718015,-128.69468595,-141.30531405,110.35771225,106.55280025,-128.69468595,0
74.0,-3.353790183,-2.6820543905,9.0240705595,9.9937593995,-50.009001639999994,-3.3538283375,-2.6820400825,9.024094405,9.99378988,-16.552538079999998,-20.38754898,299.0,203.13333333333333,394.3333333333333,195.66666666666663,15.0,15.0,15.0,15.0,0.0005952324301,0.00032255019201,-0.0016042628054,0.0021974994124999,-0.051831907085,-0.05552207131,0.1730322839999999,0.1890096665,0.0,0.0,0.0,25.44864539,-128.64968240000002,-141.35031759999998,110.38754895,106.5525381,-128.64968240000002,0
75.0,-3.347389752,-2.6930762925,9.0235125495,9.994071842,-48.51463364,-3.3473754435,-2.693100139,9.0234553175,9.994021836,-16.617787075000003,-20.352993865,301.8,201.6,396.4,194.2,15.0,15.0,15.0,15.0,-0.0005230830438,0.00049974059185,0.00162548321625,0.00267675975905,-0.05328922423,-0.05721912308,0.1701078869,0.1872176879,23.0,444.9322350543478,366.4500679347826,25.459875760000003,-128.8177465,-141.18225345000002,110.35299385,106.6177871,-128.8177465,0
76.0,-3.3505136555,-2.6853166065,9.02380824,9.9932988905,-46.600542364999995,-3.350494578,-2.6852784520000004,9.0237891625,9.9932649515,-16.572023695,-20.369816975,303.0,201.0,397.75,193.0,15.0,15.0,15.0,15.0,0.002759713985,-0.0011883428201,0.0006122087571,0.0033766076475,-0.05389203183,-0.062011926985,0.1679915909,0.1871040319,0.0,0.0,0.0,25.446606155,-128.71088235,-141.2891176,110.369817,106.5720237,-128.71088235,0
77.0,-3.3781280220000003,-2.799484721,8.9798160245,9.9950861865,-40.08810724,-3.378056482,-2.8000427325,8.979706331500001,9.9951229555,-17.314659845,-20.616260545,-1.0,-1.0,-1.0,-1.0,15.0,15.0,15.0,15.0,-0.027004029515,0.019361499755,-0.022806632975,0.04034553398,-0.062355349935,-0.0559256512,0.16731789,0.18733322865,0.0,0.0,0.0,26.04281851,-129.6268632,-140.3731368,110.61626055,107.31465985,-129.6268632,0
78.0,-3.425902326,-2.9152648825,8.910765709,9.9823008675,-34.01617438,-3.4258212475,-2.914911952,8.9108372475,9.9822317195,-18.116378865,-21.02954051,314.0,193.0,406.0,184.0,16.0,16.0,16.0,16.0,-0.0039332026495,-0.003351763387,0.02639075985,0.030110948115,-0.059464195415,-0.05421951839,0.1764658291999999,0.19657115995,0.0,0.0,0.0,26.78670669,-130.4071298,-139.5928702,111.0295405,108.11637885,-130.4071298,0
79.0,-3.5715098425000003,-2.8398665984999996,8.91176245,10.01224113,-42.68040838,-3.571547997,-2.8394802835,8.909997799500001,10.0105675465,-17.674017345000003,-21.839127615,321.0,195.8,412.6,189.8,15.0,15.0,15.0,15.0,0.007769852325,0.041397832105,-0.002856267105,0.06256011689,-0.07595090448,-0.02723027032645,0.152273988,0.18860780195,0.0,0.0,0.0,27.115533655,-128.4853764,-141.5146235,111.8391276,107.67401735,-128.4853764,0
80.0,-3.5872963149999997,-2.84104465,8.858293567499999,9.9709530325,-39.77618323,-3.5875824745,-2.8415072745,8.859981909,9.972697074,-17.784106334999997,-22.047991525,313.0,199.0,406.0,193.5,15.0,15.0,15.0,15.0,0.005941714096,-0.0332629885922399,-0.0135184606184999,0.0378374413925,-0.0444547687149999,-0.054158533525,0.17494550055,0.1890707442499999,0.0,0.0,0.0,27.321214125,-128.3790056,-141.6209944,112.04799155,107.7841063,-128.3790056,0
81.0,-3.4616340885,-2.7888347725,8.948224043,9.991567332,-42.71117327,-3.461586396,-2.788734616,8.948214504,9.9915143615,-17.31036425,-21.14904744,313.2,200.2,406.6,192.4,15.0,15.0,15.0,15.0,0.0050960808685,-0.0022313258485,-0.006809628782,0.0111917871245,-0.056875092645,-0.04284130581,0.17349342315,0.18757589725,0.0,0.0,0.0,26.417160265,-128.85629055,-141.14370939999998,111.14904745,107.31036425,-128.85629055,0
82.0,-3.477248877,-2.7875804565,8.9392004735,9.988593911,-44.94576437,-3.477344263,-2.7877855375,8.939267244,9.988744478,-17.31942241,-21.2554996,313.8333333333333,200.83333333333337,406.1666666666667,193.58333333333337,15.0,15.0,15.0,15.0,-0.014689827084,0.0035491131256,0.01650204993,0.022534404825,-0.048307959995,-0.039110151545,0.1717355819,0.1835193338,0.0,0.0,0.0,26.498835264999997,-128.71670905,-141.2832909,111.2554996,107.3194224,-128.71670905,0
83.0,-3.4922006645,-2.810339676,8.927467937,9.98965354,-44.962234214999995,-3.492224511,-2.81023952,8.9273725505,9.9895484205,-17.48615778,-21.34215813,314.8,201.73333333333332,407.1333333333333,194.8,15.0,15.0,15.0,15.0,-0.00059841548935,-0.0009358199702,-0.0014164622045,0.003129587759,-0.066169820515,-0.04229333354,0.16564025695,0.1836390097,0.0,0.0,0.0,26.65268952,-128.8780161,-141.1219839,111.3421581,107.4861578,-128.8780161,0
84.0,-3.476719447,-2.8005005115,8.935652108,9.9888098075,-42.96041036,-3.476757601,-2.8004242020000003,8.9357045715,9.9888486325,-17.401383215000003,-21.26021633,313.0,202.06666666666663,405.4,194.33333333333337,15.0,15.0,15.0,15.0,0.0004626048824,0.00055491365865,0.0035692725205,0.0038440529935,-0.049882784725,-0.039575726265,0.1709640442,0.1824946012,0.0,0.0,0.0,26.547219005,-128.8514018,-141.1485982,111.26021635,107.4013832,-128.8514018,0
85.0,-3.4806379214999996,-2.7908551284999996,8.936854915,9.988547906,-45.24347389,-3.480575863,-2.7908790705,8.9368167035,9.9884987795,-17.3428565,-21.279427395,312.06666666666666,202.13333333333333,404.1333333333333,194.66666666666663,15.0,15.0,15.0,15.0,-0.0008888634526,0.0018261094339999,-0.0029213158795,0.003571991188,-0.046612663875,-0.03809201528,0.17395227675,0.18407453395,0.0,0.0,0.0,26.528779864999997,-128.72343684999998,-141.2765631,111.27942735,107.3428565,-128.72343684999998,0
86.0,-3.4768052945,-2.7956644025,8.9376838385,9.989299765,-44.88259908,-3.4768386795,-2.7956500945,8.9377076845,9.9893287065,-17.369430135,-21.256292705,312.0,202.0,403.9230769230769,194.53846153846155,15.0,15.0,15.0,15.0,-1.0610203745e-05,-0.0003872724367,0.0003469536605,0.0043220637005,-0.050587073205,-0.037751833595,0.1722127672,0.1834630558,0.0,0.0,0.0,26.526771705,-128.80240885,-141.19759115,111.2562927,107.36943015,-128.80240885,0
87.0,-3.4790539345,-2.7899746160000003,8.939257114499998,9.9898996615,-45.485882145,-3.4790396835,-2.789993808,8.9392429025,9.989887338,-17.333332675,-21.265403285,290.875,189.375,390.875,186.0,15.0,15.0,15.0,15.0,-0.00019125104455,0.0006315787461,0.0003666716650499,0.0013552235905,-0.05608452328,-0.0404190838599999,0.16957211665,0.1831377979,0.0,0.0,0.0,26.51345757,-128.7273433,-141.27265665,111.2654033,107.3333327,-128.7273433,0
88.0,-3.474363402,-2.7886391865,8.9405120455,9.98901756,-43.131300815,-3.4743586325,-2.788643956,8.9405502,9.989051385,-17.32324568,-21.236573640000003,289.5,192.7,389.3,188.4,15.0,15.0,15.0,15.0,0.00079576528175,0.00054324243265,-0.00279366663865,0.003067476389,-0.052577813255,-0.0449448417999999,0.1692225718,0.1828150963499999,0.0,0.0,0.0,26.48718023,-128.75168854999998,-141.24831145000002,111.23657365,107.32324565,-128.75168854999998,0
89.0,-3.4708865665,-2.7885485715,8.942295774,9.9893810695,-44.044715100000005,-3.4708531815,-2.7885151864999997,8.9422862345,9.989351608,-17.3194665,-21.21335699,-1.0,-1.0,-1.0,-1.0,15.0,15.0,15.0,15.0,-7.427142715000002e-05,-0.0001485428529999,0.0041560167954999,0.0043345800115,-0.050016840295,-0.04968094069,0.16976245245,0.1838302121,0.0,0.0,0.0,26.468416745,-128.77875490000002,-141.22124505,111.213357,107.3194665,-128.77875490000002,0
90.0,-3.4750501845,-2.7849858860000003,8.9438124315,9.991191387,-46.47097126,-3.4750978774999997,-2.7849858860000003,8.9437885835,9.991186623,-17.295902695000002,-21.23325898,299.5,199.0,395.0,190.0,15.0,15.0,15.0,15.0,-2.334244819999999e-05,0.00048700835,0.0005517305945,0.002017333418,-0.050731349615,-0.053344076555,0.1689802047499999,0.1843223032499999,0.0,0.0,0.0,26.469756315,-128.7094979,-141.2905021,111.23325895,107.2959027,-128.7094979,0
91.0,-3.471291959,-2.7910810835,8.942701170500001,9.990590903,-42.54144701,-3.471263343,-2.791100161,8.9427107095,9.9905948275,-17.333516705,-21.214738725,301.0,198.0,397.0,191.0,16.0,16.0,16.0,16.0,0.000473215087,0.00068117507945,-0.0001994718329999,0.005085878367,-0.0542278174799999,-0.055399084705,0.1686553408,0.18562769865,0.0,0.0,0.0,26.477137225,-128.80090895,-141.19909105,111.2147387,107.3335167,-128.80090895,0
92.0,-3.474158321,-2.784198948,8.9435787315,9.9904524905,-43.90573428,-3.4742060145,-2.784141716,8.9435787315,9.990453131,-17.291732564999997,-21.228799199999997,301.14285714285717,198.8571428571429,397.0,191.0,15.0,15.0,15.0,15.0,0.00021326509529,0.0002673771353,0.00188543319965,0.0027382438913,-0.048440231985,-0.05909762969,0.1678133581999999,0.1843943465,0.0,0.0,0.0,26.46425204,-128.70877165000002,-141.2912283,111.2287992,107.29173255,-128.70877165000002,0
93.0,-3.474134475,-2.786078061,8.9446041385,9.991886389,-38.82362761,-3.4740867814999996,-2.78615437,8.944627986,9.991912465,-17.300841114999997,-21.226449775,301.0,199.0,397.0,191.0,15.0,15.0,15.0,15.0,9.549183350000004e-06,0.0006695038636,-0.0030886303074999,0.003194393008,-0.05381560704,-0.053997166575,0.1694589872,0.1858192089999999,0.0,0.0,0.0,26.467571014999997,-128.7278162,-141.2721838,111.22644975,107.3008411,-128.7278162,0
94.0,-3.4716544275,-2.7886391875,8.945219369,9.9922901125,-47.19674743,-3.471649658,-2.7885771865,8.9452002915,9.99225407,-17.314670405,-21.211315220000003,303.0,199.0,397.8,192.2,15.0,15.0,15.0,15.0,0.00045411672026,-0.00024191264445,0.00218464095,0.002380086872,-0.0562029866699999,-0.057074554015,0.1673210107,0.18551875315,0.0,0.0,0.0,26.46430375,-128.77347070000002,-141.22652929999998,111.21131525,107.3146704,-128.77347070000002,0
95.0,-3.4720108105,-2.7845648505,8.946810701499999,9.992701574000002,-44.629060845,-3.4720298300000003,-2.784593562,8.946820126,9.9927246155,-17.28799441,-21.209861304999997,305.14285714285717,199.0,397.8571428571428,192.71428571428572,15.0,15.0,15.0,15.0,-0.0002546448899,0.0013262754689,-8.488162994999999e-05,0.00151649273705,-0.05008860467,-0.05296935646,0.17173941555,0.18657721265,0.0,0.0,0.0,26.448569145,-128.72973754999998,-141.27026239999998,111.2098613,107.28799445,-128.72973754999998,0
96.0,-3.4706242539999996,-2.7892544305,8.9466978695,9.9934269605,-45.03367544,-3.470615116,-2.7892640835,8.946699395,9.9934278675,-17.3155737,-21.20238789,294.5,190.5,396.0,190.5,15.0,15.0,15.0,15.0,0.0005135338603,1.6976327850000005e-05,-0.00149391668935,0.0018136478735,-0.052004610765,-0.05456572694,0.1708576764,0.186762449,1.0,0.0,0.0,26.458380365,-128.78797055,-141.2120294,111.20238785,107.3155737,-128.78797055,0
97.0,-3.4718165845,-2.7827347665,8.9479760495,9.9931676435,-46.324374025,-3.4718165845,-2.7827347665,8.9479760495,9.9931676435,-17.27519298,-21.206263165,303.1111111111111,199.22222222222223,396.8888888888889,193.44444444444449,15.0,15.0,15.0,15.0,0.0001517259135499,0.00028647550018,0.0038737853759999,0.0039115102165,-0.05412905395,-0.05734610252,0.16959144625,0.1870663873,0.0,0.0,0.0,26.438937645000003,-128.71291775,-141.28708225,111.20626315,107.27519295,-128.71291775,0
98.0,-3.4726669735,-2.7833052345,8.947092346,9.992830931,-47.023658145,-3.4726669735,-2.7833052345,8.947092346,9.992830931,-17.27765006,-21.2001055,301.6666666666667,200.0,396.3333333333333,192.16666666666663,17.0,17.0,17.0,17.0,0.0006303819130499,0.0004415202865999,-0.0031258254295,0.0033515264325,-0.05510521475,-0.059803588935,0.1679071433,0.1865861382,0.0,0.0,0.0,26.43585697,-128.7260573,-141.2739427,111.2001055,107.2776501,-128.7260573,0
99.0,-3.4626022555,-2.785734672,8.9519727375,9.9943939145,-47.452944935000005,-3.4626022555,-2.785734672,8.9519727375,9.9943939145,-17.28545695,-21.146365115,-1.0,-1.0,-1.0,-1.0,16.0,16.0,16.0,16.0,0.000924148746365,-0.005709350614,0.0032350511145,0.006785787776,-0.060058896505,-0.059962651085,0.16819897905,0.18839744555,0.0,0.0,0.0,26.401522005,-128.81755465,-141.18244535,111.1463651,107.28545695,-128.81755465,0
100.0,-3.3979964545000003,-2.7644853775,8.981332764000001,9.9926663985,-46.79475867,-3.3979964545000003,-2.7644853775,8.981332764000001,9.9926663985,-17.108557939999997,-20.723624245,-1.0,-1.0,-1.0,-1.0,15.0,15.0,15.0,15.0,0.0008603983980999,0.0004220951264999,-0.0026522411125,0.003739051929,-0.041699646015,-0.05164478317,0.1749796716,0.1873307107,0.0,0.0,0.0,26.000076784999997,-129.13087685,-140.8691231,110.7236242,107.10855795,-129.13087685,0
101.0,-3.3847478515,-2.7677495585000003,8.9850670525,9.9924177305,-46.37134805,-3.3847478515,-2.7677495585000003,8.9850670525,9.9924177305,-17.120867135,-20.641802050000003,-1.0,-1.0,-1.0,-1.0,15.0,15.0,15.0,15.0,-0.0014514758688,0.0057114726932499,0.0004403234514999,0.0078960335865,-0.027846249325,-0.045422930565,0.18167107445,0.1893822162,0.0,0.0,0.0,25.94838334,-129.273302,-140.726698,110.64180205,107.1208671,-129.273302,0
102.0,-3.4009587755000004,-2.7689705045,8.9803740455,9.9940400445,-47.047148805000006,-3.4009587755000004,-2.7689705045,8.9803740455,9.9940400445,-17.136401725,-20.7421851,-1.0,-1.0,-1.0,-1.0,15.0,15.0,15.0,15.0,0.000232363462,0.0007151277324,0.00163291034415,0.0027727989655,-0.043713590455,-0.053964289405,0.17558699565,0.1888614226,0.0,0.0,0.0,26.028882455,-129.1515683,-140.84843165,110.7421851,107.1364017,-129.1515683,0
103.0,-3.4014500155,-2.768822656,8.9796777245,9.9935407,-43.483520105,-3.4014500155,-2.768822656,8.9796777245,9.9935407,-17.13679126,-20.746397945,-1.0,-1.0,-1.0,-1.0,15.0,15.0,15.0,15.0,0.001175610575,-0.0005411203900999,-0.002982528269,0.003358280183,-0.05769029496,-0.055227362925,0.1695779619,0.18750731365,0.0,0.0,0.0,26.032116955,-129.1460217,-140.85397825,110.74639795,107.13679125,-129.1460217,0
104.0,-3.399284744,-2.7714600905,8.981189591,9.9948943285,-41.96421352,-3.399284744,-2.7714600905,8.981189591,9.9948943285,-17.14943636,-20.73112102,-1.0,-1.0,-1.0,-1.0,15.0,15.0,15.0,15.0,0.00038727243669,0.00054536447065,0.002246180131,0.0024120725565,-0.05721657995,-0.05984358182,0.1694553542,0.18860851685,0.0,0.0,0.0,26.028254575,-129.1905751,-140.8094249,110.731121,107.14943635,-129.1905751,0
105.0,-3.405670865,-2.7650596615,8.9795298785,9.9938053625,-48.023944349999994,-3.405670865,-2.7650596615,8.9795298785,9.9938053625,-17.11512972,-20.77025817,-1.0,-1.0,-1.0,-1.0,15.0,15.0,15.0,15.0,-0.00034801468285,0.00108542384135,0.00047427610755,0.00134441478275,-0.05559100045,-0.055037729325,0.1694333288,0.18662883745,0.0,0.0,0.0,26.03713672,-129.0731488,-140.92685115,110.7702582,107.1151297,-129.0731488,0
106.0,-3.4041685289999997,-2.7699148300000003,8.9783804865,9.99360407,-43.35639312,-3.4041685289999997,-2.7699148300000003,8.9783804865,9.99360407,-17.14548653,-20.7643057,-1.0,-1.0,-1.0,-1.0,15.0,15.0,15.0,15.0,0.0001124681596999,-7.321040585000002e-05,-0.00218145789155,0.00275816489535,-0.058756974005,-0.0550132157299999,0.1686936333,0.1869145512,0.0,0.0,0.0,26.049799155,-129.1346934,-140.86530655,110.7643057,107.14548655,-129.1346934,0
107.0,-3.4099155615,-2.7670055445,8.977541047999999,9.9940027035,-44.361962219999995,-3.4099155615,-2.7670055445,8.977541047999999,9.9940027035,-17.130039664999998,-20.79814593,-1.0,-1.0,-1.0,-1.0,15.0,15.0,15.0,15.0,0.000300268765955,-7.321040585e-05,0.0037273645714999,0.0037553823104999,-0.06133455133,-0.05857596322,0.1673576794,0.1876507523,0.0,0.0,0.0,26.06542984,-129.05789744999998,-140.94210255000002,110.7981459,107.13003965,-129.05789744999998,0
108.0,-3.4108217325,-2.7685603435,8.976014901,9.993371561,-45.36998859,-3.4108217325,-2.7685603435,8.976014901,9.993371561,-17.141845189999998,-20.806434485,-1.0,-1.0,-1.0,-1.0,15.0,15.0,15.0,15.0,-0.00012413938475,-0.00017188529975,-0.00153741852375,0.001779559971,-0.059491887285,-0.06034258034,0.1672590282,0.18751810045,0.0,0.0,0.0,26.07794514,-129.06620045,-140.93379955,110.80643445,107.14184515,-129.06620045,0
109.0,-3.4081366045,-2.7737112105,8.976010123,9.9938799005,-44.5319774,-3.4081366045,-2.7737112105,8.976010123,9.9938799005,-17.171872540000003,-20.791465975,-1.0,-1.0,-1.0,-1.0,15.0,15.0,15.0,15.0,0.0001793124433,0.0003161840715999,0.0007522634435,0.0037388995364999,-0.061253804535,-0.058474595115,0.16768619155,0.187886163,0.0,0.0,0.0,26.08395596,-129.14041535,-140.85958465,110.79146595,107.17187255,-129.14041535,0
110.0,-3.4129631575,-2.7691278925,8.974545933,9.992940603,-43.139996245,-3.4129631575,-2.7691278925,8.974545933,9.992940603,-17.14779519,-20.821493195,-1.0,-1.0,-1.0,-1.0,15.0,15.0,15.0,15.0,-0.000507167739,0.00075332446495,0.00049231345395,0.0013781646545,-0.0611933848899999,-0.05812915907,0.16581680745,0.1860795599,0.0,0.0,0.0,26.092052395,-129.0543529,-140.94564705,110.8214932,107.1477952,-129.0543529,0
111.0,-3.414017178,-2.7739735234999996,8.9725285165,9.992833972,-45.80394758,-3.414017178,-2.7739735234999996,8.9725285165,9.992833972,-17.15595123,-20.84286965,-1.0,-1.0,-1.0,-1.0,15.0,15.0,15.0,15.0,4.562387610000001e-05,-5.198999649999998e-05,-0.0026270864425,0.002836182379,-0.06337545978,-0.0558533233299999,0.16621657025,0.1864575392999999,0.0,0.0,0.0,26.11191688,-129.0370485,-140.9629514,110.8428696,107.1559512,-129.0370485,0
112.0,-3.4141745649999997,-2.770782847,8.972290041,9.9917874855,-46.184515025,-3.4141745649999997,-2.770782847,8.972290041,9.9917874855,-17.16150201,-20.83303724,-1.0,-1.0,-1.0,-1.0,15.0,15.0,15.0,15.0,-0.00028010937885,0.00015384795525,0.0027162121565,0.0027729677615,-0.062915679005,-0.05183874047,0.1665760222,0.1854614054,0.0,0.0,0.0,26.107958085,-129.06115540000002,-140.93884459999998,110.8330372,107.161502,-129.06115540000002,0
113.0,-3.4244429145,-2.7709068495,8.969614462,9.9929349235,-41.14330198,-3.4244429145,-2.7709068495,8.969614462,9.9929349235,-17.16704441,-20.89598475,-1.0,-1.0,-1.0,-1.0,15.0,15.0,15.0,15.0,-7.002734290000002e-05,0.002533716648,-0.0017337072835,0.0043199191645,-0.05762662234,-0.051178315835,0.16932550195,0.1860441138,18.0,466.9138454861111,383.8125,26.15618691,-128.9782841,-141.02171585000002,110.89598475,107.1670444,-128.9782841,0
114.0,-3.4274571255,-2.772132565,8.968779826,9.993559256,-45.556369454999995,-3.4274571255,-2.772132565,8.968779826,9.993559256,-17.175696625,-20.914569665,-1.0,-1.0,-1.0,-1.0,15.0,15.0,15.0,15.0,-0.0002344855055,-0.001317787303,0.0028934025517,0.0046533193285,-0.059503990505,-0.05383992763,0.1693562856,0.1874244998999999,0.0,0.0,0.0,26.174323275,-128.9659474,-141.03405255,110.9145697,107.17569665,-128.9659474,0
115.0,-3.4308671905,-2.7707017680000003,8.967549331499999,9.993226673,-44.02245583,-3.4308671905,-2.7707017680000003,8.967549331499999,9.993226673,-17.16956861,-20.93619787,-1.0,-1.0,-1.0,-1.0,15.0,15.0,15.0,15.0,-4.986795759999999e-05,2.2281424150000006e-05,0.0009581013984999,0.0022930123245,-0.061386770675,-0.053839112085,0.16747585935,0.1863251330499999,0.0,0.0,0.0,26.18645153,-128.92366975,-141.07633025,110.93619785,107.1695686,-128.92366975,0
116.0,-3.4292295005,-2.7760075239999997,8.965547724,9.9923421965,-43.97857994,-3.4292295005,-2.7760075239999997,8.965547724,9.9923421965,-17.20412069,-20.9313372,-1.0,-1.0,-1.0,-1.0,15.0,15.0,15.0,15.0,0.0011471540085,0.00038293498355,-0.002220868430845,0.00273926044825,-0.0627917038,-0.061364661875,0.1640794151,0.186136363,0.0,0.0,0.0,26.20213277,-128.9906021,-141.0093979,110.9313372,107.2041207,-128.9906021,0
117.0,-3.429231313,-2.7710308515,8.9671582665,9.9924055835,-46.551606844999995,-3.429231313,-2.7710308515,8.9671582665,9.9924055835,-17.172192535,-20.92791341,-1.0,-1.0,-1.0,-1.0,15.0,15.0,15.0,15.0,0.00023872958425,6.472224285e-05,0.00322762396545,0.0032976667084,-0.05916654496,-0.064285420235,0.16510566835,0.1868045901,0.0,0.0,0.0,26.18195828,-128.9403562,-141.0596438,110.9279134,107.17219255,-128.9403562,0
118.0,-3.4307622655000003,-2.7719227145,8.9671725615,9.9931911665,-49.06307121,-3.4307622655000003,-2.7719227145,8.9671725615,9.9931911665,-17.177368655000002,-20.936416095,-1.0,-1.0,-1.0,-1.0,15.0,15.0,15.0,15.0,0.00051035080015,0.00108224077935,-0.0025496319599999,0.0029567620405,-0.055982265485,-0.0612952939,0.1676783298,0.1871182914,0.0,0.0,0.0,26.190931775000003,-128.93686585,-141.06313415,110.9364161,107.17736865,-128.93686585,0
119.0,-3.4275429735,-2.777583899,8.96620917,9.9927941285,-37.86529264,-3.4275429735,-2.777583899,8.96620917,9.9927941285,-17.21212028,-20.92052467,-1.0,-1.0,-1.0,-1.0,16.0,16.0,16.0,16.0,0.0003862114163,-1.803734820000002e-05,0.0009931150704999,0.0033266843255,-0.0554693275,-0.06274196837,0.1665574104,0.1864309838,0.0,0.0,0.0,26.19881676,-129.0203349,-140.97966505,110.92052465,107.21212025,-129.0203349,0
120.0,-3.4940607525000003,-2.806147433,8.934087755499998,9.9953782425,-49.847301825,-3.4940607525000003,-2.806147433,8.934087755499998,9.9953782425,-17.437715595,-21.360292125,-1.0,-1.0,-1.0,-1.0,15.0,15.0,15.0,15.0,-0.0244406043995,0.021979037041,-0.00315971869,0.0332294075795,-0.0732392431349999,-0.0611829603349999,0.16663624845,0.19321742895,0.0,0.0,0.0,26.63834615,-128.7708346,-141.2291654,111.36029215,107.43771555,-128.7708346,0
121.0,-3.5315094995000003,-3.2438666830000003,8.748246058,9.9775135195,-23.71590922,-3.5315094995000003,-3.2438666830000003,8.748246058,9.9775135195,-20.34681176,-21.98293328,316.3333333333333,185.33333333333337,397.3333333333333,180.33333333333337,15.0,15.0,15.0,15.0,-0.058706257255,-0.001984108115,0.0095693427855,0.061921054515,-0.023663869475,-0.068975742605,0.15326002705,0.1871100312999999,0.0,0.0,0.0,28.738397705,-132.5470553,-137.45294465,111.9829333,110.34681175,-132.5470553,0
122.0,-3.5889321945,-3.2248943,8.739828214500001,9.9845548055,-23.93553714,-3.5889321945,-3.2248943,8.739828214500001,9.9845548055,-20.25602936,-22.32755115,-1.0,-1.0,-1.0,-1.0,15.0,15.0,15.0,15.0,0.05814497746,-0.002566608273,-0.0021623595315,0.058425162475,-0.051126690135,-0.04719936848,0.1722091342,0.1899676397,0.0,0.0,0.0,28.90193566,-131.93030145,-138.06969855,112.32755115,110.25602935,-131.93030145,0
123.0,-3.486224756,-2.9070282665,8.900778691,9.991958426,-35.98602119,-3.486224756,-2.9070282665,8.900778691,9.991958426,-18.088282055,-21.38993415,-1.0,-1.0,-1.0,-1.0,15.0,15.0,15.0,15.0,0.02076522976,-0.0255525537115,0.0018175280049999,0.04341106767,-0.07549496681,-0.05466063817,0.1592888908,0.18555648195,0.0,0.0,0.0,27.020593255,-129.82021785,-140.1797821,111.38993415,108.08828205,-129.82021785,0
124.0,-3.5472387395,-2.827676216,8.92874118,10.0161088315,-36.622888065,-3.5472387395,-2.827676216,8.92874118,10.0161088315,-17.57347648,-21.665957575,-1.0,-1.0,-1.0,-1.0,15.0,15.0,15.0,15.0,-0.000359685905,0.03518025257,0.0040541591149999,0.04587080396,-0.08620284097,-0.0576476010099999,0.1850930093,0.2497392105,0.0,0.0,0.0,26.934200565,-128.58243265,-141.41756735,111.6659576,107.5734765,-128.58243265,0
125.0,-3.5946363075,-2.499374883,8.979381926,9.9905598445,-35.884241225,-3.5946363075,-2.499374883,8.979381926,9.9905598445,-15.39202572,-21.12566949,-1.0,-1.0,-1.0,-1.0,15.0,15.0,15.0,15.0,0.04601327045,0.0026652833005,-0.004952843245,0.05537306208,-0.061203059695,-0.0045602226999999,0.1585054283999999,0.17573434985,0.0,0.0,0.0,25.38085581,-125.4697233,-144.5302767,111.1256695,105.3920257,-125.4697233,0
126.0,-3.6223460865,-2.303179111,9.061032791,10.0264505965,-43.453762264999995,-3.6223460865,-2.303179111,9.061032791,10.0264505965,-14.25971795,-21.79147578,-1.0,-1.0,-1.0,-1.0,15.0,15.0,15.0,15.0,0.017985356645,-0.0072552573799999,-0.0070335040293,0.0212844118,-0.08069006097,-0.03077693214,0.169416192825,0.1929574278,0.0,0.0,0.0,25.34979015,-122.4443862,-147.5556138,111.79147575,104.25971795,-122.4443862,0
127.0,-3.571610002,-2.2060088575,8.938980975500002,9.875701701,-45.40100138,-3.571610002,-2.2060088575,8.938980975500002,9.875701701,-13.86269665,-21.77922373,-1.0,-1.0,-1.0,-1.0,15.0,15.0,15.0,15.0,-0.005736937505,-0.00188967703,-0.006331108618,0.04166795908,-0.031998971152,-0.085220158078,0.18759794843,0.21295497709,1.0,0.0,0.0,25.156556405,-121.70283945,-148.29716055,111.7792237,103.8626966,-121.70283945,1
128.0,-3.5500574205,-2.3697827475,9.148845645,10.0957843705,-41.260687795,-3.5500574205,-2.3697827475,9.148845645,10.0957843705,-14.51660018,-21.209755424999997,-1.0,-1.0,-1.0,-1.0,15.0,15.0,15.0,15.0,0.015689308515,0.002268461438,-0.002005328455,0.02025035072,-0.04358655843,-0.0134642499279999,0.10691597152,0.117683534425,0.0,0.0,0.0,25.01321012,-123.71049535,-146.2895046,111.20975545,104.51660015,-123.71049535,1
129.0,-3.5243173800000003,-2.2594873115,9.0058850795,9.931414948,-44.084905365,-3.5243173800000003,-2.2594873115,9.0058850795,9.931414948,-14.08337921,-21.373915615,296.3333333333333,199.33333333333337,390.6666666666667,186.33333333333337,15.0,15.0,15.0,15.0,-0.0166346771299999,-0.0074144103445,-0.002862632911,0.0196870494465,-0.0689369459,-0.0999882126649999,0.27319676155,0.2996066935,87.0,596.3370599856322,342.54242995689657,24.933032135,-122.6618179,-147.33818209999998,111.3739156,104.0833792,-122.6618179,1
130.0,-3.5462371975,-2.303927894,9.072317037,10.0096645395,-45.70607849,-3.5462371975,-2.303927894,9.072317037,10.0096645395,-14.24459206,-21.35094921,-1.0,-1.0,-1.0,-1.0,17.0,17.0,17.0,17.0,0.015463311076,0.008712038285,0.00321913569355,0.018777792519,-0.02607642643,0.0008146503249999,0.071670205365,0.121682872725,11.0,660.3565340909091,354.7713068181818,24.99231612,-122.9993094,-147.00069059999998,111.3509492,104.24459205,-122.9993094,1
131.0,-3.549823735,-2.3279319115,9.08225629,10.0254138175,-44.190102595,-3.549823735,-2.3279319115,9.08225629,10.0254138175,-14.373718635,-21.348684489999997,-1.0,-1.0,-1.0,-1.0,16.0,16.0,16.0,16.0,-0.01477258656,-0.003735852761875,-0.0074207765435,0.0174691328299999,-0.06730296173,-0.0740792850389999,0.2084573539999999,0.23554454045,0.0,0.0,0.0,25.05120334,-123.24986165,-146.75013835,111.34868445,104.3737186,-123.24986165,1
132.0,-3.6261710895,-2.4435069875,8.9835646255,9.9916323375,-37.56989831,-3.6261710895,-2.4435069875,8.9835646255,9.9916323375,-15.216950315,-21.981642594999997,-1.0,-1.0,-1.0,-1.0,15.0,15.0,15.0,15.0,-0.040237075555,0.0269838702099999,-0.00390986017656,0.06174275759,-0.13591688737,-0.026928916368,0.14840849731,0.20808719891,0.0,0.0,0.0,25.953854975,-123.9688128,-146.0311872,111.9816426,105.2169503,-123.9688128,1
133.0,-3.4536883985,-3.6648169405,8.5891127685,9.961803366,-20.848993215,-3.4536883985,-3.6648169405,8.5891127685,9.961803366,-23.097561045,-21.908196765,-1.0,-1.0,-1.0,-1.0,15.0,15.0,15.0,15.0,-0.17235427155,-0.04777138117,0.00996192026,0.1966156258,-0.02538177412,-0.134572239335,0.1487381851499999,0.2121649463,0.0,0.0,0.0,30.3909085,-136.59029214999998,-133.40970785000002,111.9081968,113.09756105,-136.59029214999998,1
134.0,-3.8412456135,-4.091614206,8.2416437755,9.975038913,-23.42888571,-3.8412456135,-4.091614206,8.2416437755,9.975038913,-26.400065315,-24.97621313,-1.0,-1.0,-1.0,-1.0,17.0,17.0,17.0,17.0,-0.0001325895499999,0.044181073525,0.142663355505,0.1784468947999999,-0.06918564105,-0.078311055422,0.14299910785,0.2216933739,0.0,0.0,0.0,34.27647333,-136.86706495,-133.13293495,114.9762131,116.4000653,-136.86706495,1
135.0,-4.9593885150000006,-3.8754876115,7.9687426315,10.169500882,-31.766985935,-4.9593885150000006,-3.8754876115,7.9687426315,10.169500882,-25.94236163,-31.82588691,-1.0,-1.0,-1.0,-1.0,28.0,28.0,28.0,28.0,-0.21344759087,0.161576425595,0.430800797055,0.530548521715,-0.1084311340649999,-0.431914820285,0.1829975058,0.50704043805,0.0,0.0,0.0,38.273322455,-128.21100715,-141.78899285,121.8258869,115.9423616,-128.21100715,1
136.0,-7.206322946,-0.8919164442399999,7.2887702795,10.3649236095,-46.808512539999995,-7.206322946,-0.8919164442399999,7.2887702795,10.3649236095,-6.8379565300500005,-44.300386555,-1.0,-1.0,-1.0,-1.0,15.0,15.0,15.0,15.0,0.7085759321849999,-0.28947924795,0.30539349445,0.9535336732,-0.4228034217499999,0.4964163764,0.4515075553,0.9210062063,0.0,0.0,0.0,44.8531578,-98.177537775,-171.82246220000002,134.30038655,96.83795651,-98.177537775,1
137.0,-0.8700109282499999,5.1008801055,7.222905889,9.078550052,-46.187862075,-0.8700109282499999,5.1008801055,7.222905889,9.078550052,35.352304085,-8.015474506,278.7857142857143,230.8571428571429,357.92857142857144,226.42857142857144,15.0,15.0,15.0,15.0,0.1641801692999999,-0.4548021369,0.223898643275,1.0566593408,-0.1431592355,-0.52411867893,-0.16250996745,1.17348711565,0.0,0.0,0.0,37.40955929,-9.836692098,99.836692085,98.0154745,54.647695905,-9.836692098,1
138.0,-0.057744748275,4.303800862,9.0449403605,10.0265918715,-46.561440090000005,-0.057744748275,4.303800862,9.0449403605,10.0265918715,25.489441505,-0.38842724045,287.3636363636364,230.27272727272728,369.09090909090907,224.27272727272728,15.0,15.0,15.0,15.0,-0.0473923404999999,-0.026790250595,-0.101416499835,0.4657371946999999,-0.08813450427,0.1097680368025,0.16716231999,0.3194197797499999,0.0,0.0,0.0,25.49603622,-0.6826016452999999,90.68260164,90.388427235,64.510558495,-0.6826016452999999,1
139.0,-0.2908716599499999,4.826877537,8.764662094,10.010332517,-47.76569889,-0.2908716599499999,4.826877537,8.764662094,10.010332517,28.954834,-1.504962354,278.6666666666667,230.66666666666663,358.6666666666667,222.66666666666663,15.0,15.0,15.0,15.0,-0.02149096762,0.023600276275,0.00084987737,0.050100548225,-0.036262663585,0.0623597796,0.1851046691,0.1993290510499999,0.0,0.0,0.0,28.98217489,-2.718662163,92.71866216,91.50496235,61.045166,-2.718662163,1
140.0,-0.16808168784,4.948894931,8.553819536999999,9.884452522,-44.296605035,-0.16808168784,4.948894931,8.553819536999999,9.884452522,30.05063872,-1.1212348041,277.8666666666667,233.33333333333337,357.93333333333334,225.66666666666663,15.0,15.0,15.0,15.0,-0.1320315059,-0.09053136156,-0.048330673783,0.2425409661349999,-0.00365211095,0.043152405825,0.1370992722,0.153717111,0.0,0.0,0.0,30.071646175,-1.9270712228,91.92707122,91.1212348,59.949361280000005,-1.9270712228,1
141.0,-0.4332256555,2.7353159805,9.471454579,9.913723556,-45.997199795,-0.4332256555,2.7353159805,9.471454579,9.913723556,16.12244216,-2.543725201345,273.46666666666664,236.13333333333333,352.4,231.53333333333333,15.0,15.0,15.0,15.0,-0.083584159325,0.0545831782,-0.035440121,0.5132087627999999,0.095229162855,-0.0128084208999999,0.1533076542,0.3984082999,0.0,0.0,0.0,16.644421610000002,-12.089813914995,102.089813905,92.5437252,73.877557835,-12.089813914995,1
142.0,0.1571655505999999,2.6688268859999997,9.732970716,10.10628782,-46.39581452,0.1571655505999999,2.6688268859999997,9.732970716,10.10628782,15.32776293,0.91020368255,250.875,251.375,329.375,247.875,15.0,15.0,15.0,15.0,-0.08992481564,-0.072415162,-0.15671852845,0.46185697165,-0.04121281401,-0.060217378665,0.288227466705,0.3209383451049999,0.0,0.0,0.0,15.438114705,4.320161959,85.67983803999999,89.089796315,74.67223706499999,4.320161959,1
143.0,0.47759077615,2.12671404,9.769020221,10.012815863,-47.89172959,0.47759077615,2.12671404,9.769020221,10.012815863,12.294241585,2.8070619944999997,243.0,254.21428571428572,331.2857142857143,249.1428571428571,15.0,15.0,15.0,15.0,0.04062116471675,-0.004906158105,0.0400450308249999,0.06840278109,0.098697569065,0.064367419355,0.1932738393999999,0.2309824098,0.0,0.0,0.0,12.593020145,12.52908682,77.47091317,87.192938,77.70575841499999,12.52908682,1
144.0,0.73893554,3.124957846,8.9645684005,9.54863567,-47.337929965,0.73893554,3.124957846,8.9645684005,9.54863567,19.432414395,4.843195975,232.0,265.14285714285717,306.7142857142857,254.71428571428572,16.0,16.0,16.0,16.0,-0.1408621258,0.19954185794,0.070302149225,0.5522741363,-0.098687507205,0.15294899418,-0.15584371262,0.29401143125,0.0,0.0,0.0,19.93476579,13.01490627,76.98509372000001,85.15680402,70.567585605,13.01490627,1
145.0,-0.96569197425,0.35667653,10.2260329915,10.5234938025,-44.474159695,-0.96569197425,0.35667653,10.2260329915,10.5234938025,2.5749034345000004,-4.862718361000001,231.8571428571429,262.7142857142857,307.57142857142856,253.8571428571429,15.0,15.0,15.0,15.0,0.2467000437,-0.2162462977249999,0.0473859946499999,0.7619739513999999,-0.1163982096,0.45625839065,0.586226902215,0.94738983555,0.0,0.0,0.0,13.608859415,-56.35675509,-33.64324490999999,94.862718365,87.42509656,-56.35675509,1
146.0,0.161167603455,3.197881612,9.2255632505,9.77128728,-48.123941075,0.161167603455,3.197881612,9.2255632505,9.77128728,17.31040937,1.711875114,277.15384615384613,237.46153846153845,356.61538461538464,234.69230769230768,15.0,15.0,15.0,15.0,-0.064231271975,0.018514489175,-0.0127505809349999,0.16776784035,-0.00021027544,0.038740905215,-0.068381925555,0.081969207265,0.0,0.0,0.0,17.38504238,5.477569361,84.52243063,88.28812488,72.68959062,5.477569361,1
147.0,0.33055722135,2.518642963,9.2433450345,9.604775311,-42.824398035,0.33055722135,2.518642963,9.2433450345,9.604775311,15.139506925,1.9365872294999995,245.75,259.5,325.25,256.25,15.0,15.0,15.0,15.0,-0.33979813896,0.461680735035,0.560157218645,0.81616342928,-0.1379055601,-0.056634292461,-0.0281184476999999,0.45815830265,0.0,0.0,0.0,15.45670582,5.452977644500001,84.54702234999999,88.06341276500001,74.860493065,5.452977644500001,1
148.0,-5.298993699,-1.860167422,8.5310213275,10.32627868,-45.6574698,-5.298993699,-1.860167422,8.5310213275,10.32627868,-12.697957241,-32.328670775,-1.0,-1.0,-1.0,-1.0,15.0,15.0,15.0,15.0,-0.3269628001,0.6906586578,0.1484030033,1.0064185516,-0.2336185694599999,0.2442862176999999,0.53579352525,0.98905921245,0.0,0.0,0.0,33.808609615,-109.6524384,-160.34756155000002,122.32867075,102.69795725,-109.6524384,1
149.0,-6.2675192615,-4.508215027,5.9780307194999995,9.848978453,-47.80441133,-6.2675192615,-4.508215027,5.9780307194999995,9.848978453,-37.01168436,-46.108772505000005,-1.0,-1.0,-1.0,-1.0,15.0,15.0,15.0,15.0,0.3590036708999999,0.006600608,-0.6241271979735,0.82706070425,0.06033596497,-0.318431217775,-0.3090006226,0.5221750093499999,1.0,0.0,0.0,52.46477605,-126.2184842,-143.78151580000002,136.1087725,127.01168435,-126.2184842,1
150.0,-5.0993212295,-3.266352591,8.104112184,10.145024285,-40.3980978,-5.0993212295,-3.266352591,8.104112184,10.145024285,-21.947564845,-32.20504067,338.0,201.0,413.0,213.0,15.0,15.0,15.0,15.0,0.427776890735,0.02224747576,-0.151872334575,0.47777881697,-0.0165904675849999,-0.9126333087,0.11094858948,0.96577507295,0.0,0.0,0.0,36.853523785,-122.252029,-147.747971,122.20504065,111.94756485,-122.252029,0
151.0,-4.3608898455,-2.4867366205,8.7663659555,10.10498337,-47.217067235,-4.3608898455,-2.4867366205,8.7663659555,10.10498337,-15.85382905,-26.461824855000003,-1.0,-1.0,-1.0,-1.0,15.0,15.0,15.0,15.0,0.08726687113,-0.1396061978,-0.07396906492,0.19473890645,-0.07092619453,-0.13720340043,0.18216505395,0.25290504115,0.0,0.0,0.0,29.8091097,-119.68017325,-150.31982670000002,116.46182485,105.85382905,-119.68017325,0
152.0,-3.3715516295,-2.0927803415,9.0117994445,9.892669101,-27.935839790000003,-3.3715516295,-2.0927803415,9.0117994445,9.892669101,-16.48034028,-25.24731507,-1.0,-1.0,-1.0,-1.0,15.0,15.0,15.0,15.0,0.041267570451,0.0738247703,-0.0568473786499999,0.22238053145,-0.21501386295,0.2845301856,0.13978248469,0.4019862473,0.0,0.0,0.0,29.10421524,-122.1019969,-147.8980031,115.2473151,106.4803403,-122.1019969,0
153.0,-3.696375555,-1.832875864,9.0941367095,9.987862713,-45.753568785,-3.696375555,-1.832875864,9.0941367095,9.987862713,-11.39739688,-22.12011139,-1.0,-1.0,-1.0,-1.0,15.0,15.0,15.0,15.0,-0.004363976775,-0.017134417985,0.0080902803275,0.05323200306,-0.07525761852,-0.11341815076775,0.14161747305,0.22285570605,0.0,0.0,0.0,24.40400484,-116.34047395,-153.65952605,112.12011135,101.39739685,-116.34047395,0
154.0,-3.9913154255,-1.972016183,8.9569137105,10.00326292,-45.16564902,-3.9913154255,-1.972016183,8.9569137105,10.00326292,-12.418468465,-24.01876742,-1.0,-1.0,-1.0,-1.0,15.0,15.0,15.0,15.0,-0.0315473188199999,0.05945639859,0.0001941667349999,0.071424312225,-0.07448493027,-0.052766619325,0.1663802615,0.19353587045,0.0,0.0,0.0,26.42900473,-116.278622,-153.72137795,114.0187674,102.41846845,-116.278622,0
155.0,-4.065759858,-2.08352303,8.88432457,9.9907527975,-46.47693586,-4.065759858,-2.08352303,8.88432457,9.9907527975,-13.20001001,-24.591485755,-1.0,-1.0,-1.0,-1.0,15.0,15.0,15.0,15.0,0.015794349325,-0.04590186347,-0.0024732384975,0.051114159845,-0.1184525343,-0.04143967995,0.181030875,0.2202735292,0.0,0.0,0.0,27.213910140000003,-117.1346669,-152.8653331,114.59148575,103.20001005,-117.1346669,0
156.0,-3.9170509395,-1.9996150655,8.9778595065,9.9971918255,-46.92699571,-3.9170509395,-1.9996150655,8.9778595065,9.9971918255,-12.556373945,-23.57168714,-1.0,-1.0,-1.0,-1.0,15.0,15.0,15.0,15.0,0.004235450177,0.00146680171555,-0.0007137930419999,0.0052040701725,-0.0631283807699999,-0.035775641135,0.17439780755,0.1889856416,0.0,0.0,0.0,26.098608735,-117.04400265,-152.95599725,113.57168715,102.55637395,-117.04400265,0
157.0,-3.9375031465,-1.977372122,8.9762009,9.9993083025,-47.643204375,-3.9375031465,-1.977372122,8.9762009,9.9993083025,-12.42328944,-23.685153755,-1.0,-1.0,-1.0,-1.0,15.0,15.0,15.0,15.0,-0.00210588966115,-0.0003032497271,0.0035719377125,0.0043346812105,-0.0686828674749999,-0.031642831885,0.1765674428,0.1920932719499999,0.0,0.0,0.0,26.14494512,-116.6652856,-153.3347144,113.68515375,102.42328945,-116.6652856,0
158.0,-3.9445903585,-1.968548877,8.974431461999998,9.998769951,-48.243024065,-3.9445903585,-1.968548877,8.974431461999998,9.998769951,-12.37738114,-23.71958549,-1.0,-1.0,-1.0,-1.0,15.0,15.0,15.0,15.0,-0.00056520853625,-0.000228068247925,-0.00032955548685,0.0011532769516,-0.076810094145,-0.018157733095,0.17589425675,0.1928126759,0.0,0.0,0.0,26.15713491,-116.540207,-153.4597929,113.7195855,102.3773811,-116.540207,0
159.0,-3.9495709975,-1.967119568,8.972154932999999,9.99841173,-47.002233165,-3.9495709975,-1.967119568,8.972154932999999,9.99841173,-12.366269485,-23.759246125,-1.0,-1.0,-1.0,-1.0,15.0,15.0,15.0,15.0,0.000415919986795,0.000613269777385,-0.0008541214004999,0.0024207303675,-0.080833914385,-0.0197765443099999,0.173951413,0.1928331361,0.0,0.0,0.0,26.18706366,-116.4760153,-153.5239847,113.7592461,102.36626945,-116.4760153,0
160.0,-3.954136723,-1.9621369975,8.9719611745,9.9990635165,-46.8408723,-3.954136723,-1.9621369975,8.9719611745,9.9990635165,-12.33616482,-23.784122095,305.0,202.0,407.0,192.0,15.0,15.0,15.0,15.0,0.0006160949534499,0.0001578773055,0.000657782107215,0.00118102825775,-0.079609829435,-0.028082047615,0.17251469635,0.1920652406,0.0,0.0,0.0,26.197171885,-116.39171015,-153.6082898,113.7841221,102.3361648,-116.39171015,0
161.0,-3.956212514,-1.961104326,8.972335689000001,10.000017784,-33.79661893,-3.956212514,-1.961104326,8.972335689000001,10.000017784,-12.32937202,-23.794338095,303.0,202.0,403.5,192.5,15.0,15.0,15.0,15.0,-1.533427065000001e-05,-0.00079403901735,-0.0014199694619,0.00186427933065,-0.081509221965,-0.032250457575,0.17107244925,0.1922250892499999,0.0,0.0,0.0,26.203424974999997,-116.3677284,-153.63227160000002,113.7943381,102.329372,-116.3677284,0
162.0,-3.9522880435,-1.963154775,8.9734775935,9.999894097,-48.16904749,-3.9522880435,-1.963154775,8.9734775935,9.999894097,-12.34034285,-23.770661725,-1.0,-1.0,-1.0,-1.0,16.0,16.0,16.0,16.0,0.0005899273283499,-9.230877245e-05,0.0019257519807,0.002614851665,-0.0846058591749999,-0.03487401699,0.1724330217999999,0.195220495,0.0,0.0,0.0,26.18716181,-116.4142307,-153.58576929999998,113.7706617,102.3403428,-116.4142307,0
163.0,-3.956685358,-1.9598877895,8.9729482285,10.0005162245,-48.723078345,-3.956685358,-1.9598877895,8.9729482285,10.0005162245,-12.3211416,-23.7954232,305.22222222222223,204.0,403.8888888888889,194.0,15.0,15.0,15.0,15.0,5.72951002e-05,0.000386211416,0.0008201687494999,0.002132545108,-0.07783733762,-0.039883550645,0.17198047835,0.1929646101,0.0,0.0,0.0,26.201279094999997,-116.35086555,-153.64913439999998,113.7954232,102.3211416,-116.35086555,0
164.0,-3.9524502,-1.962787537,8.97287668,9.999347141,-48.053624244999995,-3.9524502,-1.962787537,8.97287668,9.999347141,-12.35582738,-23.7466978,305.25,203.75,403.5,194.75,15.0,15.0,15.0,15.0,0.00034695366245,-0.0002238753001,-0.0013814485236,0.00202396341915,-0.0797491728099999,-0.04164175049,0.1717651968,0.1939098221,0.0,0.0,0.0,26.17233694,-116.4696713,-153.5303287,113.7466978,102.3558274,-116.4696713,0
165.0,-3.954961456,-1.947064447,8.9757475225,9.999843101,-47.734026029999995,-3.954961456,-1.947064447,8.9757475225,9.999843101,-12.23925799,-23.77960998,305.8666666666667,205.06666666666663,404.2,195.46666666666667,15.0,15.0,15.0,15.0,0.00148896526,0.00059601977455,0.0026479236999999,0.0032908791795,-0.075805882795,-0.04488166584,0.1730034906999999,0.1942028936499999,0.0,0.0,0.0,26.157080085,-116.2114279,-153.7885721,113.77960995,102.23925795,-116.2114279,0
166.0,-3.958114962,-1.939202826,8.976064118,9.999845456,-51.49837844,-3.958114962,-1.939202826,8.976064118,9.999845456,-12.190908135,-23.79571969,304.5,205.92857142857144,403.42857142857144,196.5,15.0,15.0,15.0,15.0,-0.0011342307802,0.0002578279509999,-0.001694449538,0.002257420189,-0.071759179715,-0.03697154983,0.1750979885,0.1928668364,0.0,0.0,0.0,26.15299396,-116.1016612,-153.8983388,113.7957197,102.1909081,-116.1016612,0
167.0,-3.9549836565,-1.9417593525,8.976655583500001,9.9996340185,-50.138274365,-3.9549836565,-1.9417593525,8.976655583500001,9.9996340185,-12.20571771,-23.77758961,305.1,206.0,404.9,196.5,15.0,15.0,15.0,15.0,0.00022087328505,-6.129497865e-05,0.0013854778789285,0.00177566203515,-0.073453490285,-0.02947193091,0.17633183125,0.19330528705,0.0,0.0,0.0,26.14283611,-116.14943465,-153.85056535,113.7775896,102.2057177,-116.14943465,0
168.0,-3.9596273855,-1.9378377595,8.9764121745,10.00049218,-49.11953843,-3.9596273855,-1.9378377595,8.9764121745,10.00049218,-12.18212471,-23.80298141,304.77777777777777,206.33333333333337,403.1111111111111,196.44444444444449,15.0,15.0,15.0,15.0,3.1653774505e-05,0.00080374398565,0.000279936752525,0.00087219976565,-0.07321823816,-0.034481418915,0.17669888795,0.19436681725,0.0,0.0,0.0,26.156013425,-116.07708325,-153.92291675,113.8029814,102.1821247,-116.07708325,0
169.0,-3.9566035415,-1.941526583,8.9769311195,10.0004766,-47.734161330000006,-3.9566035415,-1.941526583,8.9769311195,10.0004766,-12.20393529,-23.78559941,302.4166666666667,207.08333333333337,402.3333333333333,196.5,15.0,15.0,15.0,15.0,-0.0001183627173499,0.00032021342275,-0.00129564902785,0.0022149831535,-0.06876537318,-0.035279203865,0.1785441793,0.19455964815,0.0,0.0,0.0,26.14908782,-116.1374326,-153.86256735,113.7855994,102.2039353,-116.1374326,0
170.0,-3.959059079,-1.935866382,8.976349286000001,9.999828864,-50.27467458,-3.959059079,-1.935866382,8.976349286000001,9.999828864,-12.17244794,-23.81072545,303.3076923076923,208.15384615384616,402.0,198.46153846153845,15.0,15.0,15.0,15.0,-0.0002877933558,0.0013047055965,0.00193589482835,0.002455408328,-0.0681800805,-0.03086914774,0.1778124347,0.1929258468,0.0,0.0,0.0,26.159124,-116.0502813,-153.9497187,113.8107254,102.1724479,-116.0502813,0
171.0,-3.960646128,-1.936837943,8.9749264205,9.99936822,-48.81206313,-3.960646128,-1.936837943,8.9749264205,9.99936822,-12.17798207,-23.81192701,301.6666666666667,209.33333333333337,401.3333333333333,199.53333333333333,15.0,15.0,15.0,15.0,0.0006205032407499,-0.0014416698514999,-0.0020227385003745,0.0028748065259999,-0.067039056955,-0.03518310652,0.17777642405,0.19328065725,0.0,0.0,0.0,26.162213075,-116.05959245,-153.94040755,113.811927,102.17798205,-116.05959245,0
172.0,-3.944304767,-1.9355790805,8.9841374425,10.000938705,-50.07507625,-3.944304767,-1.9355790805,8.9841374425,10.000938705,-12.158198375,-23.702910645,294.26666666666665,211.86666666666667,396.46666666666664,201.2,15.0,15.0,15.0,15.0,0.000528611297,0.0003896892109999,0.00300080981,0.0041765874355,-0.07166945615,-0.03972516308,0.1756691748,0.1938517457,0.0,0.0,0.0,26.06065296,-116.138405,-153.861595,113.70291065,102.1581984,-116.138405,0
173.0,-3.9385810135,-1.933675597,8.9876663485,10.00148396,-51.219110175,-3.9385810135,-1.933675597,8.9876663485,10.00148396,-12.14196582,-23.6640249,300.06666666666666,213.4,401.93333333333334,203.13333333333333,15.0,15.0,15.0,15.0,-0.0001421767311,0.0022175325805,5.0928977e-05,0.00233724045,-0.057999712045,-0.0427693455,0.1819525003,0.19574055405,0.0,0.0,0.0,26.02100437,-116.14907425,-153.8509257,113.6640249,102.1419658,-116.14907425,0
174.0,-3.9423344695,-1.9387453875,8.9840559485,10.0007002,-34.077006095,-3.9423344695,-1.9387453875,8.9840559485,10.0007002,-12.177599725,-23.69256505,304.2,213.93333333333337,404.6,203.73333333333332,15.0,15.0,15.0,15.0,0.000110346118965,0.0004275912088,-0.0003108789695,0.0020437292855,-0.057723043455,-0.0404014057549999,0.18391133115,0.19700757055,0.0,0.0,0.0,26.05892983,-116.18684355,-153.81315645,113.69256505,102.17759975,-116.18684355,0
175.0,-3.9468128625,-1.9332606675,8.982286544499999,9.999815257000002,-46.012271555,-3.9468128625,-1.9332606675,8.982286544499999,9.999815257000002,-12.14649468,-23.720665935,304.6666666666667,213.86666666666667,405.26666666666665,203.6,15.0,15.0,15.0,15.0,0.0001283834653,0.000524144065,0.0005114118202999,0.0015266579705,-0.0649411642899999,-0.0379013613199999,0.1777508002,0.1930113479,0.0,0.0,0.0,26.071634025,-116.09692495,-153.903075,113.72066595,102.14649465,-116.09692495,0
176.0,-3.949774611,-1.9336899065,8.981256351999999,10.000142109,-49.20279307,-3.949774611,-1.9336899065,8.981256351999999,10.000142109,-12.15201885,-23.73578283,305.06666666666666,214.53333333333333,405.6666666666667,203.86666666666667,15.0,15.0,15.0,15.0,0.00048488631115,-0.00021114305465,-0.00190240953135,0.00218424986225,-0.06975663807,-0.03741848324,0.1767288044,0.19364736075,0.0,0.0,0.0,26.0867534,-116.0913176,-153.9086824,113.7357828,102.1520188,-116.0913176,0
177.0,-3.950237235,-1.9358361,8.980941584,10.00045853,-49.935746179999995,-3.950237235,-1.9358361,8.980941584,10.00045853,-12.163958515,-23.74213285,302.2857142857143,214.6428571428571,402.6428571428572,204.8571428571429,15.0,15.0,15.0,15.0,0.0003756012135,0.00070876160825,0.0021655425799999,0.002323238768,-0.07290466875,-0.04179647423,0.17479384315,0.19394653655,0.0,0.0,0.0,26.09669125,-116.1074257,-153.89257425,113.74213285,102.16395855,-116.1074257,0
178.0,-3.9602528105,-1.931248014,8.9778176855,10.000727715,-48.68439681,-3.9602528105,-1.931248014,8.9778176855,10.000727715,-12.140085425,-23.80300967,299.8,214.66666666666663,401.4,204.46666666666667,15.0,15.0,15.0,15.0,0.0004923134545,9.124774849999997e-05,0.00082971793295,0.00155310719095,-0.07530817094,-0.04586077658,0.1722026575,0.193464695,0.0,0.0,0.0,26.14048013,-115.99655965,-154.00344035,113.8030097,102.14008545,-115.99655965,0
179.0,-3.9543102355,-1.935144549,8.9798923525,10.00099169,-49.25557126,-3.9543102355,-1.935144549,8.9798923525,10.00099169,-12.16112239,-23.766370215,301.6,215.13333333333333,402.6666666666667,205.2,15.0,15.0,15.0,15.0,0.000507167739,-0.00023554652315,-0.000881707934,0.003242633751,-0.0767180688949999,-0.04572682419,0.1738638647499999,0.19546758225,0.0,0.0,0.0,26.116584375,-116.0760279,-153.9239721,113.7663702,102.16112235,-116.0760279,0
180.0,-3.9512912555,-1.929917373,8.9809892755,9.9997727455,-48.648323055000006,-3.9512912555,-1.929917373,8.9809892755,9.9997727455,-12.127810245,-23.747655845,301.8666666666667,215.6,402.73333333333335,205.73333333333332,15.0,15.0,15.0,15.0,-8.488162995e-05,0.0009676505796499,0.0024233705298,0.002838003977,-0.070029325785,-0.048665520735,0.1746500507,0.19436970915,0.0,0.0,0.0,26.088046445,-116.03213555,-153.96786444999998,113.74765585,102.12781025,-116.03213555,0
181.0,-3.9556408765,-1.9288395065,8.980602990000001,10.0009373,-49.349269629999995,-3.9556408765,-1.9288395065,8.980602990000001,10.0009373,-12.121743365,-23.77180961,301.2307692307692,215.84615384615384,402.7692307692308,205.76923076923077,15.0,15.0,15.0,15.0,1.3793266749999972e-05,0.0006100867154499,-0.002113552584,0.0024578612915,-0.06822284575,-0.043519657465,0.1765687773499999,0.19426681465,0.0,0.0,0.0,26.10669896,-115.9946697,-154.0053303,113.7718096,102.12174335,-115.9946697,0
182.0,-3.948510741,-1.936231955,8.981294514,10.0001695525,-51.136815075,-3.948510741,-1.936231955,8.981294514,10.0001695525,-12.14948178,-23.72304729,299.93333333333334,215.46666666666667,402.0,204.4,15.0,15.0,15.0,15.0,0.00075226344555,-2.7586529735e-05,0.0006790530365,0.0034373823325,-0.06613733878,-0.04334648849,0.17750052615,0.1943363931,0.0,0.0,0.0,26.07480183,-116.1001033,-153.8998967,113.7230473,102.1494818,-116.1001033,0
183.0,-3.953184676,-1.9281765705,8.9822531465,10.00132026,-49.63326332,-3.953184676,-1.9281765705,8.9822531465,10.00132026,-12.115540265,-23.75480262,304.73333333333335,215.33333333333337,405.8666666666667,204.46666666666667,15.0,15.0,15.0,15.0,-0.000204776932255,0.001489672605,0.0013623501606,0.0021487604015,-0.06596441996,-0.0432048671899999,0.1781540129,0.1948294455499999,0.0,0.0,0.0,26.08968757,-116.00092985,-153.99907015,113.7548026,102.11554025,-116.00092985,0
184.0,-3.951865405,-1.931095584,8.981005728500001,10.000243745,-51.32272466,-3.951865405,-1.931095584,8.981005728500001,10.000243745,-12.13497142,-23.750684575,306.4,215.53333333333333,406.8666666666667,204.13333333333333,15.0,15.0,15.0,15.0,0.0006746137303999,-0.0007808261141,-0.00283727458,0.003123498452,-0.06581506866,-0.04335841193,0.17783012595,0.1945138995999999,0.0,0.0,0.0,26.0933426,-116.042623,-153.95737695,113.7506846,102.1349714,-116.042623,0
185.0,-3.947366104,-1.9319109485,8.9828731755,10.00029966,-49.002897955,-3.947366104,-1.9319109485,8.9828731755,10.00029966,-12.13749602,-23.72224565,307.2857142857143,216.78571428571428,408.8571428571428,206.92857142857144,15.0,15.0,15.0,15.0,0.00057507304295,0.00038939447745,0.005184145536,0.005242118343,-0.070049666685,-0.049227682235,0.1741559316499999,0.1940684465,0.0,0.0,0.0,26.06966153,-116.0779448,-153.9220552,113.72224565,102.13749605,-116.0779448,0
186.0,-3.9543489245,-1.929661718,8.98029498,10.000309225,-48.581021305,-3.9543489245,-1.929661718,8.98029498,10.000309225,-12.127162684999998,-23.765630205,306.8666666666667,217.53333333333333,408.93333333333334,207.26666666666668,15.0,15.0,15.0,15.0,0.0002476845962,0.000336649032555,-0.00145978578385,0.0015884442445,-0.068199739295,-0.05045282273,0.17438281545,0.1939411294,0.0,0.0,0.0,26.103354965,-116.01167135,-153.98832865,113.7656302,102.12716265,-116.01167135,0
187.0,-3.9552545615,-1.9300652155,8.978347078999999,9.9989959225,-47.69931231,-3.9552545615,-1.9300652155,8.978347078999999,9.9989959225,-12.13217383,-23.77505549,308.92857142857144,216.42857142857144,410.7142857142857,203.0,15.0,15.0,15.0,15.0,-0.0007077005908499,-0.0004636659054785,0.00099099302607,0.00142739021275,-0.075658862555,-0.04539939903,0.17216769475,0.19346803525,0.0,0.0,0.0,26.1133717,-116.0112029,-153.9887971,113.7750555,102.1321738,-116.0112029,0
188.0,-3.9561464245,-1.9324689595,8.978852636500001,10.0002683435,-51.36015222499999,-3.9561464245,-1.9324689595,8.978852636500001,10.0002683435,-12.17869996,-23.759275,310.06666666666666,220.26666666666668,412.0,208.06666666666663,15.0,15.0,15.0,15.0,0.0020276099325,0.0005803781467,-0.0030992405085,0.003790856351,-0.0784621927449999,-0.04092911132,0.1709097836,0.19247029215,0.0,0.0,0.0,26.11696597,-116.1173117,-153.8826883,113.759275,102.1787,-116.1173117,0
189.0,-3.9560844235,-1.927361016,8.9789671005,9.999358762,-46.133899845,-3.9560844235,-1.927361016,8.9789671005,9.999358762,-12.11486782,-23.778030585,311.26666666666665,222.0,414.1333333333333,209.46666666666667,15.0,15.0,15.0,15.0,-0.0002079599934,0.000432896312785,0.0016838393339999,0.0019431535105,-0.073739078965,-0.046031534995,0.1735664827,0.19412457665,0.0,0.0,0.0,26.10954264,-115.97483545,-154.02516455,113.77803055,102.1148678,-115.97483545,0
190.0,-3.9586360105,-1.9295072105,8.9816999095,10.003236035,-42.39313361,-3.9586360105,-1.9295072105,8.9816999095,10.003236035,-12.124378495,-23.78522769,312.8,221.86666666666667,415.53333333333336,210.06666666666663,15.0,15.0,15.0,15.0,-0.00034589264115,-0.001173488534,-0.00051777794285,0.001898000652,-0.0758293886049999,-0.04411468809,0.1721050701499999,0.1931849785,0.0,0.0,0.0,26.11928535,-115.9854014,-154.0145986,113.78522765,102.1243785,-115.9854014,0
191.0,-3.944347123,-1.9367947325,8.981566374,9.9988809125,-47.074507935,-3.944347123,-1.9367947325,8.981566374,9.9988809125,-12.1689839,-23.70916667,311.93333333333334,221.86666666666667,414.8666666666667,209.8,15.0,15.0,15.0,15.0,0.00119789200255,0.00035119774115,0.0006578326285,0.0032824996335,-0.0722607355,-0.0474127545999999,0.1744023086,0.1946546495,0.0,0.0,0.0,26.07008014,-116.15248795,-153.84751204999998,113.70916665,102.1689839,-116.15248795,0
192.0,-3.9502563125,-1.9302130715,8.982458236,10.00074022,-42.904019455,-3.9502563125,-1.9302130715,8.982458236,10.00074022,-12.1276886,-23.73867052,310.54545454545456,216.8181818181818,411.8181818181818,204.45454545454547,15.0,15.0,15.0,15.0,-0.000413797946055,2.864754920000001e-05,-9.65528541e-05,0.0009478300505499,-0.07435508551,-0.0456238565699999,0.17294068785,0.1937122266499999,0.0,0.0,0.0,26.0802281,-116.04151535,-153.9584846,113.7386705,102.1276886,-116.04151535,0
193.0,-3.9519224145,-1.925677748,8.9816061115,9.9997600775,-42.380502385,-3.9519224145,-1.925677748,8.9816061115,9.9997600775,-12.09800281,-23.77981113,-1.0,-1.0,-1.0,-1.0,15.0,15.0,15.0,15.0,0.0005822138785,-0.00010783672157,-0.0019816829098,0.0021483542442,-0.0788215701549999,-0.0389067208949999,0.1727362133,0.1938372005999999,0.0,0.0,0.0,26.10485724,-115.9405702,-154.0594298,113.7798111,102.0980028,-115.9405702,0
194.0,-3.9495988275,-1.927189035,8.984413876,10.001655335,-47.740273779999995,-3.9495988275,-1.927189035,8.984413876,10.001655335,-12.106691745,-23.73055778,-1.0,-1.0,-1.0,-1.0,15.0,15.0,15.0,15.0,9.811070145e-05,0.0003391686359999,0.0037967856125,0.0039304726105,-0.078754916275,-0.04074122088,0.173832845,0.19514791015,0.0,0.0,0.0,26.065451265,-116.0098643,-153.99013565,113.73055775,102.10669175,-116.0098643,0
195.0,-3.9456682255,-1.926087601,8.985605984500001,10.0009700295,-42.383140925,-3.9456682255,-1.926087601,8.985605984500001,10.0009700295,-12.09841027,-23.706737935,-1.0,-1.0,-1.0,-1.0,15.0,15.0,15.0,15.0,-0.00051247283905,-0.0024838486955,-0.000729982017495,0.002747155327,-0.0719993104399999,-0.045941338525,0.17389517475,0.1937408939,0.0,0.0,0.0,26.041808155,-116.01967495,-153.98032504999998,113.7067379,102.09841025,-116.01967495,0
196.0,-3.926705403,-1.9336946675,8.992182863,10.0008778725,-46.64521559,-3.926705403,-1.9336946675,8.992182863,10.0008778725,-12.136164975,-23.58992546,319.0,203.0,420.0,198.0,15.0,15.0,15.0,15.0,0.00060159855145,0.001124681605532,-0.0026408797055,0.0032519777715,-0.076761435725,-0.0395185073599999,0.17456787995,0.19504499395,0.0,0.0,0.0,25.95482398,-116.21778305,-153.78221695000002,113.58992545,102.136165,-116.21778305,0
197.0,-3.937014405,-1.9243026545,8.989300523499999,10.000528625,-46.753632045,-3.937014405,-1.9243026545,8.989300523499999,10.000528625,-12.082713565,-23.651817895,317.0,206.26666666666668,417.0,199.4,15.0,15.0,15.0,15.0,-8.488162904000001e-05,0.00259525583495,0.003730547633,0.004565100872,-0.0644962534,-0.03958677736,0.17895722185,0.1943711208,0.0,0.0,0.0,25.98842267,-116.0481262,-153.9518738,113.6518179,102.08271355,-116.0481262,0
198.0,-3.9454011435,-1.9248094285,8.9854104355,10.0004345615,-44.25162664,-3.9454011435,-1.9248094285,8.9854104355,10.0004345615,-12.090881265,-23.705784005,315.6666666666667,206.86666666666667,415.73333333333335,198.33333333333337,15.0,15.0,15.0,15.0,-0.0001326275468,-0.0002185701905,-0.0022376919687,0.0028935422735,-0.067217879825,-0.036040336365,0.17858897315,0.1942331408499999,0.0,0.0,0.0,26.038142405,-116.00597765,-153.99402235,113.705784,102.09088125,-116.00597765,0
199.0,-3.939749346,-1.928607191,8.986573803999999,9.9999845975,-48.418449725,-3.939749346,-1.928607191,8.986573803999999,9.9999845975,-12.11250667,-23.672833255,313.0,206.625,413.6875,197.5625,16.0,16.0,16.0,16.0,0.0002698191653,0.000387731370115,0.0021190429453,0.0025837707259999,-0.07139786006,-0.038150512315,0.1756667214,0.1934217276499999,0.0,0.0,0.0,26.017674755,-116.0829412,-153.9170588,113.67283325,102.1125067,-116.0829412,0
200.0,-3.9476856485,-1.921437517,8.9848190225,10.0001559715,-45.067369725,-3.9476856485,-1.921437517,8.9848190225,10.0001559715,-12.06972751,-23.71013548,315.38461538461536,206.53846153846155,415.2307692307692,198.53846153846155,15.0,15.0,15.0,15.0,-0.00017082428025,0.0003066348873,0.00026101101205,0.00111401393165,-0.06974332957,-0.038390353355,0.17622825265,0.1933789079,0.0,0.0,0.0,26.03408262,-115.9606024,-154.0393976,113.7101355,102.0697275,-115.9606024,0
201.0,-3.9430546375,-1.928395957,8.985567849,10.0003413105,-46.03414389,-3.9430546375,-1.928395957,8.985567849,10.0003413105,-12.112540315,-23.692866414999997,313.46666666666664,206.86666666666667,412.1333333333333,199.26666666666668,15.0,15.0,15.0,15.0,0.00086579262555,-0.00010928509855,-0.000688602228,0.003452603472,-0.073190293615,-0.03832361528,0.17543967565,0.1939265587499999,0.0,0.0,0.0,26.03499406,-116.06148475,-153.93851525,113.6928664,102.1125403,-116.06148475,0
202.0,-3.948436015,-1.920571178,8.984399992,9.999909675,-44.62794533,-3.948436015,-1.920571178,8.984399992,9.999909675,-12.06635645,-23.724376915,308.53333333333336,208.2,409.46666666666664,199.0,15.0,15.0,15.0,15.0,1.4913702399999976e-05,0.00108656974225,0.002550243102,0.002923288456,-0.06707511918,-0.04496477115,0.1761188588,0.1937557177,0.0,0.0,0.0,26.045172865,-115.93891135,-154.06108865,113.7243769,102.06635645,-115.93891135,0
203.0,-3.9487730535,-1.922854003,8.9841084275,10.000219055,-43.48013138,-3.9487730535,-1.922854003,8.9841084275,10.000219055,-12.080657895000002,-23.726864585,309.06666666666666,209.13333333333333,410.4,200.06666666666663,15.0,15.0,15.0,15.0,0.00015384795432,-0.00081274160695,-0.0026302695075,0.0027927742025,-0.07160139599,-0.043605749645,0.17471078325,0.1937985334999999,0.0,0.0,0.0,26.052607625,-115.96375255,-154.03624745000002,113.72686455,102.08065785,-115.96375255,0
204.0,-3.947480567,-1.922625077,8.985477218,10.00089506,-46.911419735,-3.947480567,-1.922625077,8.985477218,10.00089506,-12.077474885,-23.71674144,308.46666666666664,210.4,409.26666666666665,202.73333333333332,15.0,15.0,15.0,15.0,0.0002026548915,0.0006748089534999,0.0035140994635,0.0036350764315,-0.073479396985,-0.045748297215,0.174787578,0.1950501384,0.0,0.0,0.0,26.04267271,-115.96844445,-154.03155555,113.71674145,102.07747485,-115.96844445,0
205.0,-3.951405719,-1.9215138265,8.98415612,10.001044325,-46.300785205,-3.951405719,-1.9215138265,8.98415612,10.001044325,-12.072423425,-23.74082269,308.1333333333333,211.6,409.2,203.4,15.0,15.0,15.0,15.0,-2.8647550095e-05,-0.000188861627595,-0.0022981701275,0.0023190797905,-0.072354742475,-0.04633548345,0.17520372185,0.19517328955,0.0,0.0,0.0,26.06165415,-115.9330163,-154.06698369999998,113.74082265,102.0724234,-115.9330163,0
206.0,-3.9460015055,-1.926366725,8.984589530000001,10.00023468,-44.45036079,-3.9460015055,-1.926366725,8.984589530000001,10.00023468,-12.13241173,-23.70283964,307.6923076923077,211.92307692307693,408.6923076923077,203.92307692307693,15.0,15.0,15.0,15.0,0.00016645287637,0.0003810421268,0.00177294381775,0.00264459271885,-0.076469969755,-0.04241450192,0.17286412005,0.1937451679,0.0,0.0,0.0,26.05099235,-116.0889882,-153.9110118,113.7028396,102.1324117,-116.0889882,0
207.0,-3.95271526,-1.919129889,8.984124482,10.00107552,-41.06749208,-3.95271526,-1.919129889,8.984124482,10.00107552,-12.05792526,-23.74789393,308.1333333333333,211.93333333333337,409.26666666666665,203.8,15.0,15.0,15.0,15.0,0.0002563382784,-0.00037089028305,-0.00046743040395,0.0008846295827,-0.073501912255,-0.0435284236,0.17407026445,0.1939090061,0.0,0.0,0.0,26.062432445,-115.8975874,-154.1024126,113.74789395,102.05792525,-115.8975874,0
208.0,-3.9458150445,-1.925567636,8.985634024,10.00094442,-36.96789071,-3.9458150445,-1.925567636,8.985634024,10.00094442,-12.095212205,-23.707470575,310.06666666666666,210.73333333333332,410.1333333333333,204.13333333333333,15.0,15.0,15.0,15.0,0.00087563889475,-3.8493818999999965e-06,5.977364299999998e-05,0.003448839436,-0.076554001325,-0.043809797085,0.17292401905,0.1941455185,0.0,0.0,0.0,26.041205755,-116.01249125,-153.98750875000002,113.70747055,102.0952122,-116.01249125,0
209.0,-3.9509383255,-1.920269033,8.9845948885,10.0010145865,-47.99884919,-3.9509383255,-1.920269033,8.9845948885,10.0010145865,-12.064259975,-23.73729402,309.53333333333336,211.86666666666667,410.53333333333336,204.6,15.0,15.0,15.0,15.0,0.00015703101545,0.0003522587633999,0.0009771997648,0.00135194828955,-0.07532636441,-0.049136248385,0.17306541845,0.1950394564,0.0,0.0,0.0,26.05558508,-115.92107775,-154.0789222,113.737294,102.06426,-115.92107775,0
210.0,-3.949474144,-1.9247855815,8.984113178000001,10.0008725785,-46.9270789,-3.949474144,-1.9247855815,8.984113178000001,10.0008725785,-12.09243117,-23.730598345,311.93333333333334,212.2,413.0,204.2,15.0,15.0,15.0,15.0,0.00019734978965,-3.501367235e-05,-0.002032915036,0.0020504520195,-0.07543575953,-0.04803408706,0.1726959622,0.194478109,0.0,0.0,0.0,26.060203225,-115.9824096,-154.01759034999998,113.73059835,102.09243115,-115.9824096,0
211.0,-3.950115389,-1.921130346,8.983922452,10.0002518185,-50.13059858,-3.950115389,-1.921130346,8.983922452,10.0002518185,-12.07038465,-23.734476095,313.26666666666665,212.66666666666663,414.73333333333335,205.6,15.0,15.0,15.0,15.0,0.00106178855345,0.0001017263893999,0.002381422029,0.0028141984505,-0.07492909609,-0.04950931488,0.1723378642,0.1943427702,0.0,0.0,0.0,26.055417759999997,-115.93586595,-154.06413400000002,113.7344761,102.07038465,-115.93586595,0
212.0,-3.9527871245,-1.916414766,8.98457245,10.0009857645,-49.268634875,-3.9527871245,-1.916414766,8.98457245,10.0009857645,-12.04492381,-23.73918194,313.0,213.13333333333333,414.4,207.33333333333337,15.0,15.0,15.0,15.0,-0.00026554369015,-1.3296707350000014e-05,-0.0004411340751,0.0017258661705,-0.07586544438,-0.04370809653,0.17346052265,0.19431681665,0.0,0.0,0.0,26.05009266,-115.8818621,-154.1181378,113.7391819,102.0449238,-115.8818621,0
213.0,-3.9481053485,-1.9218238275,8.985772930500001,10.00125391,-49.44406762,-3.9481053485,-1.9218238275,8.985772930500001,10.00125391,-12.072200485,-23.719386475,314.0,213.26666666666668,415.46666666666664,207.13333333333333,15.0,15.0,15.0,15.0,0.0002896585621999,-4.137979461999999e-05,0.0010037252705,0.0035294208989999,-0.0770301823,-0.0454463296899999,0.17310996945,0.1948564645,0.0,0.0,0.0,26.04302147,-115.9554744,-154.0445256,113.7193865,102.0722005,-115.9554744,0
214.0,-3.9531799065,-1.9173978985,8.9844422815,10.001212395,-47.04901299,-3.9531799065,-1.9173978985,8.9844422815,10.001212395,-12.046947655,-23.749629645,316.8666666666667,214.66666666666663,418.73333333333335,209.0,15.0,15.0,15.0,15.0,-0.0004583608017499,0.000773483853,0.0012955058774,0.0016208536924999,-0.07137344002,-0.04656814348,0.17491713985,0.19458463515,0.0,0.0,0.0,26.059892645,-115.87462435,-154.12537565000002,113.7496296,102.04694765,-115.87462435,0
215.0,-3.949889075,-1.9226680015,8.985515383500001,10.00188916,-48.934395165,-3.949889075,-1.9226680015,8.985515383500001,10.00188916,-12.07768244,-23.72952439,318.1333333333333,215.06666666666663,419.6666666666667,209.46666666666667,15.0,15.0,15.0,15.0,0.000335282438335,1.8037345449999976e-05,-0.0009761387454499,0.002042258851,-0.073018501595,-0.0469024736199999,0.1760202049999999,0.1962546222,0.0,0.0,0.0,26.05382697,-115.9552043,-154.0447957,113.7295244,102.07768245,-115.9552043,0
216.0,-3.9520400385,-1.915881255,8.9852101375,10.001161305,-50.02890379,-3.9520400385,-1.915881255,8.9852101375,10.001161305,-12.036697775,-23.74173454,317.73333333333335,215.2,418.8,210.06666666666663,15.0,15.0,15.0,15.0,0.00034270958096,0.0007649956884,0.0025963168544,0.0028748673365,-0.068264677415,-0.04867682003,0.1768390337499999,0.1957275026,0.0,0.0,0.0,26.049277365,-115.8633183,-154.13668165,113.74173455,102.03669775,-115.8633183,0
217.0,-3.951510644,-1.9167015765,8.9861878725,10.001987575,-46.97810643,-3.951510644,-1.9167015765,8.9861878725,10.001987575,-12.040429515,-23.736608595,317.3333333333333,215.93333333333337,418.8666666666667,209.8,15.0,15.0,15.0,15.0,0.0007119446713,4.137979460000001e-05,-0.0030599827559999,0.003184230069,-0.0703065532799999,-0.045467386545,0.1766538053,0.195530402,0.0,0.0,0.0,26.046206935,-115.8759534,-154.1240466,113.7366086,102.0404295,-115.8759534,0
218.0,-3.9513575105,-1.920534662,8.984789496000001,10.001406735,-49.708591459999994,-3.9513575105,-1.920534662,8.984789496000001,10.001406735,-12.08781707,-23.7323518,316.8666666666667,216.4,418.53333333333336,211.26666666666668,15.0,15.0,15.0,15.0,0.0003483202566999,0.0003417546617,0.002760965998,0.0028095397335,-0.069965042915,-0.048265997375,0.17568893255,0.19517112045,0.0,0.0,0.0,26.06000389,-115.971657,-154.028343,113.7323518,102.0878171,-115.971657,0
219.0,-3.9535662215,-1.915809712,8.9847713465,10.00135647,-43.84156071,-3.9535662215,-1.915809712,8.9847713465,10.00135647,-12.036831535,-23.750920299999997,318.53333333333336,216.93333333333337,420.46666666666664,211.73333333333332,15.0,15.0,15.0,15.0,-0.00016870223955,0.0004424454954499,-0.0004074318238099,0.0011370156445,-0.06933165915,-0.045427857605,0.17658643825,0.19508028845,0.0,0.0,0.0,26.05728938,-115.8537898,-154.14621019999998,113.7509203,102.03683155,-115.8537898,0
220.0,-3.951448643,-1.9217713695,8.984642595,10.00154813,-47.62977384,-3.951448643,-1.9217713695,8.984642595,10.00154813,-12.07335801,-23.73990798,318.26666666666665,217.06666666666663,420.0,212.13333333333333,15.0,15.0,15.0,15.0,-9.443081334999998e-05,-0.000290719582585,-0.0005909883494999,0.0026271831004999,-0.070568289075,-0.043130581345,0.17702201055,0.1954000356999999,0.0,0.0,0.0,26.061212225,-115.93579955,-154.06420045,113.739908,102.073358,-115.93579955,0
221.0,-3.95358053,-1.916162645,8.98458058,10.00125824,-47.346884185,-3.9551925605,-1.9157954065,8.9838699615,10.001187075,-12.0392333,-23.75144497,318.1333333333333,217.46666666666667,420.0,212.46666666666667,15.0,15.0,15.0,15.0,-0.00063873426545,0.00086367058295,0.00123608873605,0.0016531957235,-0.0728641208249999,-0.039508893155,0.17663915455,0.1951238494,0.0,0.0,0.0,26.05862639,-115.8578505,-154.1421494,113.751445,102.0392333,-115.8578505,0
222.0,-3.956270427,-1.9158287895,8.982892259,10.00074144,-48.802520455,-3.95441993,-1.9177174425,8.98365535,10.0010572,-12.0393933,-23.769785964999997,318.73333333333335,217.6,420.06666666666666,212.53333333333333,15.0,15.0,15.0,15.0,0.0004541167203,-4.456285758e-05,-0.0006917852842,0.0008287187239,-0.070016124185,-0.03821613149,0.17713319295,0.19427615485,0.0,0.0,0.0,26.074585675,-115.83864355,-154.16135645,113.76978595,102.0393933,-115.83864355,0
223.0,-3.9528412845,-1.9213469005,8.984275346499999,10.00168668,-50.54514003,-3.9523786605,-1.9196251755,8.984842877999998,10.001683625,-12.07124987,-23.748212855,319.46666666666664,217.8,421.3333333333333,212.8,15.0,15.0,15.0,15.0,0.00031830611235,6.047816224999999e-05,-0.0002832924424999,0.0040169011535,-0.068187517145,-0.0405821507,0.1787234087999999,0.1955481869,0.0,0.0,0.0,26.06762412,-115.92286695,-154.07713305,113.7482129,102.0712499,-115.92286695,0
224.0,-3.953795149,-1.915599864,8.984270576499998,10.00095701,-49.433763255,-3.9567425895,-1.9157620165,8.982787324,10.000821245,-12.036203830000002,-23.753321405,319.6,218.0,421.2,214.26666666666668,15.0,15.0,15.0,15.0,-2.9708570500000005e-05,0.00069815140545,0.002300292171,0.002423679064,-0.0676191429949999,-0.04479926834,0.1768554108,0.1945743663,0.0,0.0,0.0,26.05913881,-115.85002875,-154.14997125000002,113.7533214,102.0362038,-115.85002875,0
225.0,-3.9560748845,-1.919849328,8.983187947,10.001701545,-49.074805705,-3.952829266,-1.925055771,8.983230674,10.00145668,-12.08604866,-23.75658448,320.26666666666665,217.93333333333337,421.73333333333335,213.53333333333333,15.0,15.0,15.0,15.0,-0.000137932647735,4.3501836265000006e-05,-0.0027491037795,0.0027545366145,-0.06829833394,-0.043800220895,0.1770609271,0.19482016315,0.0,0.0,0.0,26.0803327,-115.9423836,-154.0576163,113.7565845,102.0860487,-115.9423836,0
226.0,-3.9522855635,-1.921359545,8.983049434,10.0003693605,-46.8652688,-3.952989134,-1.916219875,8.983159331,9.999758661,-12.072922775,-23.74812536,325.26666666666665,215.13333333333333,426.8,211.0,15.0,15.0,15.0,15.0,-0.0001503847838,0.00158494798925,0.0043591470185,0.004787430421,-0.0638370998199999,-0.04387632478,0.17860176415,0.1946797092,0.0,0.0,0.0,26.068178005,-115.9261633,-154.07383670000002,113.74812535,102.07292275,-115.9261633,0
227.0,-3.95100832,-1.910993796,8.986882983000001,10.001337195,-37.012594355,-3.95100832,-1.910993796,8.986882983000001,10.001337195,-12.004758015,-23.7323113,327.26666666666665,214.26666666666668,428.4,207.86666666666667,15.0,15.0,15.0,15.0,0.0025300582534,-0.0015419427078,-0.0002653611779999,0.0045408065285,-0.074551381765,-0.0413268217949999,0.17503249455,0.1946894673999999,0.0,0.0,0.0,26.029347355,-115.8115119,-154.1884881,113.7323113,102.00475805,-115.8115119,0
228.0,-3.9984317525,-1.9466727285,8.958509085,10.001746905,-42.42436594,-3.9984317525,-1.9466727285,8.958509085,10.001746905,-12.26008221,-24.05265882,326.4,216.0,427.6666666666667,210.8,15.0,15.0,15.0,15.0,-0.0013925637474,0.00804724966,-0.012856774325,0.015405378635,-0.08766870759,-0.038923585785,0.1697364524,0.19496521125,1.0,0.0,0.0,26.40045646,-115.95849165,-154.04150835000002,114.0526588,102.26008225,-115.95849165,1
229.0,-3.9540622145,-1.9287679445,8.980044961499999,9.999801112,-44.36001517,-3.9540622145,-1.9287679445,8.980044961499999,9.999801112,-12.122022325,-23.76468818,327.53333333333336,211.73333333333332,426.73333333333335,205.86666666666667,15.0,15.0,15.0,15.0,0.00239578401485,-0.004217556073,0.001685961327,0.0077390389224999,-0.07187345671,-0.0426485112699999,0.17671831075,0.19579858165,0.0,0.0,0.0,26.10068001,-116.00282875,-153.99717125,113.76468815,102.1220223,-116.00282875,1
230.0,-3.9875237905,-1.9477880095,8.958678388,9.9976087015,-42.662268735,-3.9875237905,-1.9477880095,8.958678388,9.9976087015,-12.266304455,-23.99393851,331.25,205.0,427.25,199.5,15.0,15.0,15.0,15.0,-0.0016626189164999,0.002518862367,-0.0035809437585,0.0063293306045,-0.0877184059099999,-0.037372398715,0.1620561646,0.1882047102,0.0,0.0,0.0,26.352219965,-116.0341319,-153.96586810000002,113.9939385,102.26630445,-116.0341319,1
231.0,-4.081951602,-1.997241117,8.9065402,9.999046073,-35.729019225,-4.081951602,-1.997241117,8.9065402,9.999046073,-12.45854346,-24.32577481,293.0,176.0,383.0,168.0,15.0,15.0,15.0,15.0,-0.00399686374985,0.0129465706025,-0.0086908179035,0.0179149936799999,-0.10028228348,-0.07081442792,0.1570826713499999,0.1994876602,0.0,0.0,0.0,26.70970787,-116.0462373,-153.9537627,114.3257748,102.4585435,-116.0462373,1
232.0,-4.218425998500001,-2.2339141775,8.7609802395,9.978576453,-36.93793348,-4.218425998500001,-2.2339141775,8.7609802395,9.978576453,-14.31079406,-25.714731775,-1.0,-1.0,-1.0,-1.0,15.0,15.0,15.0,15.0,-0.1131546400149999,0.0234506722685,0.0565332876999999,0.16662200558,-0.14393911045,-0.091569114945,0.11943008985,0.25896247145,0.0,0.0,0.0,28.58617366,-117.89571225,-152.1042877,115.7147318,104.31079405,-117.89571225,1
233.0,-4.658005946499999,-3.476856527,8.127446879,9.9942462915,-23.87067837,-4.658005946499999,-3.476856527,8.127446879,9.9942462915,-23.170745415,-29.82515979,-1.0,-1.0,-1.0,-1.0,15.0,15.0,15.0,15.0,-0.08328153054,0.0380222550449999,0.028649141635,0.146755560445,-0.066451319215,-0.0216396618949999,0.154808181985,0.21656788655,0.0,0.0,0.0,35.574356135,-126.736657,-143.26334300000002,119.82515975,113.1707454,-126.736657,1
234.0,-5.024246569500001,-2.6404086204999997,8.190897837000001,9.971894656,-26.6659837,-5.024246569500001,-2.6404086204999997,8.190897837000001,9.971894656,-17.840375129999998,-31.514969235,-1.0,-1.0,-1.0,-1.0,15.0,15.0,15.0,15.0,0.089152237045,0.0485087903805,0.1026537211,0.1593885464,-0.1440081634,0.05065115169,0.09140328318,0.1779282172,0.0,0.0,0.0,34.77263549,-117.76250015,-152.23749974999998,121.5149692,107.84037515,-117.76250015,1
235.0,-6.0703028539999995,-3.001627831,7.357257826,10.004564441,-45.665897965,-6.0703028539999995,-3.001627831,7.357257826,10.004564441,-22.15342757,-39.524736025,-1.0,-1.0,-1.0,-1.0,15.0,15.0,15.0,15.0,-0.503974068455,-0.15754879423,0.4675343857,0.76467260245,-0.1275649149,0.0310435859574999,0.186347666265,0.2579240034,0.0,0.0,0.0,42.65747949,-116.2767145,-153.7232855,129.52473605,112.1534276,-116.2767145,1
236.0,-6.133219818500001,-3.467877158,6.857084282000001,9.862406621,-32.691618405,-6.133219818500001,-3.467877158,6.857084282000001,9.862406621,-26.684676185,-41.767197800000005,320.6666666666667,209.55555555555551,394.0,206.88888888888889,15.0,15.0,15.0,15.0,0.3835981230999999,0.3448167669999999,-0.5773436272,0.81971245645,-0.04005025865,0.04629521036,0.116358043435,0.1442357639499999,0.0,0.0,0.0,45.951241055,-119.4644605,-150.5355395,131.7671978,116.6846762,-119.4644605,1
237.0,-5.521076808,-3.3123208045,7.7259791685,10.075663833499998,-46.31016903,-5.521076808,-3.3123208045,7.7259791685,10.075663833499998,-19.20987756,-33.76689384,-1.0,-1.0,-1.0,-1.0,16.0,16.0,16.0,16.0,0.15018743412,-0.110727026195,0.0330794320549999,0.192958982075,-0.10781707084,-0.41370744365,0.078204412305,0.4906190299999999,0.0,0.0,0.0,37.01436782,-117.5253664,-152.4746336,123.7668938,109.2098776,-117.5253664,1
238.0,-5.412369539,-2.839513685,7.898414152,9.9871669285,-40.857677855,-5.412369539,-2.839513685,7.898414152,9.9871669285,-19.773415945,-34.420699955,-1.0,-1.0,-1.0,-1.0,15.0,15.0,15.0,15.0,-0.0070451752644999,0.0007480193599999,-0.000585683242,0.023386433855,-0.097408242735,-0.08332261683,0.13203639805,0.18406838025,30.0,763.0665364583333,565.5075520833333,37.734384085,-117.68279465,-152.3172053,124.42069995,109.77341595,-117.68279465,1
239.0,-5.352209285,-2.8084367335,7.940074217499999,9.9788951615,-37.87585782,-5.352209285,-2.8084367335,7.940074217499999,9.9788951615,-19.478743575000003,-33.98290134,371.0,195.0,449.0,195.0,15.0,15.0,15.0,15.0,-0.009465362844,-0.0065029939339999,0.02653718066,0.03362529021,-0.106209451145,-0.04690893908,0.1277835292,0.17451925935,29.0,848.4644396551724,712.3336476293103,37.27972417,-117.68687555,-152.31312445,123.98290135,109.47874355,-117.68687555,1
240.0,-5.3465195235,-2.796088923,7.955331231500001,9.984532121,-48.31012688,-5.3465195235,-2.796088923,7.955331231500001,9.984532121,-19.365231845,-33.90377216500001,345.72727272727275,194.9090909090909,426.45454545454544,189.8181818181818,15.0,15.0,15.0,15.0,0.006672757121,-0.0063629392114999,0.0029315992985,0.0097198497364999,-0.0975804098349999,-0.06507956597,0.13347470765,0.17775444265,78.0,1095.375,839.7497996794872,37.17761599000001,-117.6082406,-152.39175935,123.90377215,109.36523185,-117.6082406,1
241.0,-5.341955283,-2.7708305435,7.965003423,9.9827525795,-47.460055695,-5.341955283,-2.7708305435,7.965003423,9.9827525795,-19.181550195,-33.848899645,343.125,205.25,425.375,199.0,19.0,19.0,19.0,19.0,0.0043151698445,-0.004982551662,0.0025390217645,0.0070644461075,-0.09871556332,-0.072143600235,0.12961057175,0.17818675765,48.0,1180.005126953125,872.9517415364584,37.07216461,-117.41539845,-152.58460150000002,123.84889965,109.18155015,-117.41539845,1
242.0,-5.328940606,-2.7545604575,7.981995576499999,9.984862751,-43.659348505,-5.328940606,-2.7545604575,7.981995576499999,9.984862751,-19.0393871,-33.727868825,-1.0,-1.0,-1.0,-1.0,15.0,15.0,15.0,15.0,0.0040465025185,-0.0032898507005,0.001865524209,0.005625916294,-0.0973259150649999,-0.070756478715,0.1327557053,0.1791761362,79.0,1212.899376977848,720.4779964398734,36.92622901,-117.3347162,-152.6652838,123.7278688,109.0393871,-117.3347162,1
243.0,-5.324876343,-2.7499456815,7.986899373,9.9853429295,-43.9283795,-5.324876343,-2.7499456815,7.986899373,9.9853429295,-18.9924607,-33.68299308,344.6666666666667,190.66666666666663,424.6666666666667,188.33333333333337,15.0,15.0,15.0,15.0,0.002282254821,-0.001953338513,0.0030069317415,0.004342499543,-0.1033132514,-0.076602816165,0.1286020981,0.1819097615,5.0,1206.78515625,705.609375,36.87397641,-117.312228,-152.687772,123.6829931,108.9924607,-117.312228,1
244.0,-5.320297794,-2.7458392954999997,7.990509772499999,9.984661163,-36.05723198,-5.320297794,-2.7458392954999997,7.990509772499999,9.984661163,-18.964647895,-33.656752865,338.14285714285717,206.28571428571428,424.1428571428572,206.8571428571429,15.0,15.0,15.0,15.0,0.0035798827435,-0.00060478160964,0.00042759121185,0.0036960946359999,-0.09903305137,-0.0712031006699999,0.13318048905,0.1806859736,25.0,1202.50109375,696.8578125,36.843291144999995,-117.2985471,-152.7014529,123.6567529,108.9646479,-117.2985471,1
245.0,-5.2930745075,-2.7188878599999997,8.0198221445,9.9863466765,-39.68932062,-5.2930745075,-2.7188878599999997,8.0198221445,9.9863466765,-18.727750235,-33.42473505,347.6666666666667,227.77777777777777,437.55555555555554,235.33333333333337,15.0,15.0,15.0,15.0,0.0023989670585,-0.004496604344,-0.0006525275368,0.005308950903,-0.087886065115,-0.05876240646,0.1442274005,0.17922646085,8.0,1172.4443359375,692.9892578125,36.57469722,-117.1884975,-152.81150250000002,123.42473505,108.72775025,-117.1884975,1
246.0,-5.2740162985,-2.7106512415,8.033510122,9.9849975015,-41.052224194999994,-5.2740162985,-2.7106512415,8.033510122,9.9849975015,-18.645320575,-33.28498234,338.5,214.16666666666663,427.3333333333333,213.33333333333337,15.0,15.0,15.0,15.0,0.00084775527755,0.00160320178395,0.000737409160225,0.0022205059465,-0.086706903245,-0.054787751225,0.14743340205,0.1796265148,12.0,973.8544921875,686.68359375,36.432404610000006,-117.2015052,-152.7984948,123.28498235,108.64532055,-117.2015052,1
247.0,-5.281542288,-2.69007162,8.036877299,9.9861231625,-36.639335005,-5.281542288,-2.69007162,8.036877299,9.9861231625,-18.5062374,-33.311462930000005,-1.0,-1.0,-1.0,-1.0,15.0,15.0,15.0,15.0,0.0028159480725,0.00022069223975,-0.001851480553,0.0036833750089999,-0.08737083087,-0.047862609225,0.1480112984,0.17847223875,25.0,912.56859375,523.9640625,36.408585145,-116.99129145,-153.00870855,123.3114629,108.5062374,-116.99129145,1
248.0,-5.2701913025,-2.655160187,8.057590448500001,9.9874904005,-43.355930685,-5.2701913025,-2.655160187,8.057590448500001,9.9874904005,-18.23823571,-33.18732522,-1.0,-1.0,-1.0,-1.0,16.0,16.0,16.0,16.0,0.003249905405,-0.0011077052719,0.0007310430304999,0.004578811407,-0.090192824545,-0.0303768937049999,0.15549814495,0.18246582055,20.0,902.624609375,416.0572265625,36.21856588,-116.7390255,-153.26097445,123.18732525,108.2382357,-116.7390255,1
249.0,-5.2593601575,-2.5584524985000003,8.0868502595,9.980237167,-48.96354045,-5.2593601575,-2.5584524985000003,8.0868502595,9.980237167,-17.80476187,-33.02293239,-1.0,-1.0,-1.0,-1.0,16.0,16.0,16.0,16.0,0.0030652878384999,0.0016488256617,-0.0008530604164,0.0110464303545,-0.0879953778,-0.005260603769,0.16114059705,0.1839687147,18.0,807.9190538194445,481.8747829861111,35.94175835,-116.2941919,-153.7058081,123.0229324,107.8047619,-116.2941919,1
250.0,-5.1597782500000005,-2.908139083,8.0396289115,9.9888806755,-38.76344979,-5.1597782500000005,-2.908139083,8.0396289115,9.9888806755,-19.876571435,-32.686366795,-1.0,-1.0,-1.0,-1.0,15.0,15.0,15.0,15.0,-0.0482764271599999,-0.0052255253485,-0.07456851191,0.092111205325,-0.06870982669,-0.043101119545,0.1609278971,0.1845702894999999,0.0,0.0,0.0,36.403315825,-119.4140454,-150.58595455,122.6863668,109.87657145,-119.4140454,1
251.0,-4.965687647999999,-3.3417260375,8.004397014,9.9950805455,-32.85902739,-4.965687647999999,-3.3417260375,8.004397014,9.9950805455,-22.66033653,-31.8138108,-1.0,-1.0,-1.0,-1.0,16.0,16.0,16.0,16.0,-0.0164553649835,0.0074101662993,-0.015351903735,0.025961360235,-0.09024916755,-0.04910485328,0.1580951933,0.19214707465,0.0,0.0,0.0,36.7869779,-123.9398429,-146.06015705,121.8138108,112.6603365,-123.9398429,1
252.0,-4.912548937,-3.6845333195,7.8543933,9.9700163425,-24.978312945,-4.912548937,-3.6845333195,7.8543933,9.9700163425,-25.13122046,-32.02401411,-1.0,-1.0,-1.0,-1.0,15.0,15.0,15.0,15.0,-0.02104958322,0.007274355749,-0.0352142051915,0.05099407038,-0.060084200835,-0.062024024235,0.14097602915,0.167706943,0.0,0.0,0.0,38.019375625,-126.8702323,-143.1297677,122.0240141,115.13122045,-126.8702323,1
253.0,-4.9228363795,-3.664354331,7.8765610945,9.985105851,-33.729301129999996,-4.9228363795,-3.664354331,7.8765610945,9.985105851,-24.948933474999997,-32.005331605,-1.0,-1.0,-1.0,-1.0,15.0,15.0,15.0,15.0,-0.003057860714,0.0014748182842,0.008696123011,0.0105515438649999,-0.0975715541899999,-0.034058263255,0.15430723485,0.1859164663,0.0,0.0,0.0,37.92348393,-126.66230685,-143.33769310000002,122.0053316,114.94893345,-126.66230685,1
254.0,-4.929203419,-3.6441848695,7.8801810075,9.983706135,-40.889538295,-4.929203419,-3.6441848695,7.8801810075,9.983706135,-24.818150565,-32.026765995,-1.0,-1.0,-1.0,-1.0,15.0,15.0,15.0,15.0,-0.0020626235985,0.0002769263177499,0.00048382529085,0.0050481564895,-0.083215234415,-0.033797197455,0.15536009985,0.1800344857499999,0.0,0.0,0.0,37.87946703,-126.47570195,-143.52429805,122.026766,114.81815055,-126.47570195,1
255.0,-4.932193783500001,-3.627549468,7.885174487,9.9830694235,-44.21863088,-4.932193783500001,-3.627549468,7.885174487,9.9830694235,-24.704638770000003,-32.026060099999995,-1.0,-1.0,-1.0,-1.0,15.0,15.0,15.0,15.0,0.0022790717605,0.00116500038517,-0.00102812874124,0.0030025167125,-0.09126868563,-0.05226882034,0.14424083585,0.17852446,0.0,0.0,0.0,37.828061765,-126.3339035,-143.66609649999998,122.0260601,114.7046388,-126.3339035,1
256.0,-5.1386197675,-3.338609354,7.939559121,10.03417001,-39.144565135,-5.1386197675,-3.338609354,7.939559121,10.03417001,-21.31725452,-33.90048279,408.5,190.0,505.0,198.5,15.0,15.0,15.0,15.0,-0.044023857285,-0.006981514111,0.14285684453,0.158643987585,-0.1195954000099999,-0.0569482250349999,0.21608307265,0.27967140085,0.0,0.0,0.0,37.84982599,-120.1443325,-149.8556675,123.9004828,111.3172545,-120.1443325,1
257.0,-4.1992577220000005,-3.6556930075,7.937137257,9.730623341,-40.79534175,-4.1992577220000005,-3.6556930075,7.937137257,9.730623341,-24.63214346,-27.881285,340.0,192.0,444.5,196.5,15.0,15.0,15.0,15.0,-0.0165771576999999,-0.0128773836999999,-0.134476753045,0.4282480745,-0.4297953299149999,-0.07780044005,-0.152010717655,1.04745047825,0.0,0.0,0.0,34.97354456,-130.5021013,-139.49789865000002,117.881285,114.63214345,-130.5021013,1
258.0,-5.3863051965,-2.619638198,8.098973867,10.0735434815,-38.60730094,-5.3863051965,-2.619638198,8.098973867,10.0735434815,-17.926246810000002,-33.623911955,-1.0,-1.0,-1.0,-1.0,16.0,16.0,16.0,16.0,0.08820050211,0.0005029240499999,0.07567515628,0.2342075361,-0.0757179436349999,0.0101445089999999,0.11615159323,0.39716335365,25.0,716.9505208333334,543.5647786458334,36.48731988,-115.94380005,-154.05619995,123.62391195,107.9262468,-115.94380005,1
259.0,-5.3704615365,-2.6348703525,8.041840346,10.022851082,-43.18869423,-5.3704615365,-2.6348703525,8.041840346,10.022851082,-18.1388933,-33.736445974999995,-1.0,-1.0,-1.0,-1.0,17.0,17.0,17.0,17.0,-0.0161629177554999,0.05004686693,0.01770535752555,0.06045772609,-0.24205954617,0.003323755985,0.0975882605435,0.3253948309,42.0,573.9639136904761,344.0201822916667,36.645079965,-116.1306337,-153.86936624999998,123.736446,108.1388933,-116.1306337,1
260.0,-5.2587474455,-2.7470433945000003,8.0119786405,9.9730238285,-39.33773545,-5.2587474455,-2.7470433945000003,8.0119786405,9.9730238285,-18.928475975,-33.28311504,-1.0,-1.0,-1.0,-1.0,16.0,16.0,16.0,16.0,0.0066589638049999,-0.065506337095,-0.022459679417,0.076118973145,-0.069887236745,-0.07223291185,0.1555005260999999,0.1908443597,1.0,0.0,0.0,36.53037788,-117.61472215,-152.38527785,123.28311505,108.92847595,-117.61472215,1
261.0,-4.9455240695,-2.677513974,8.2576826675,9.9908559875,-33.67923262,-4.9455240695,-2.677513974,8.2576826675,9.9908559875,-17.965000000000003,-30.917334955,-1.0,-1.0,-1.0,-1.0,15.0,15.0,15.0,15.0,0.022058613684,-0.0127004138145,-0.007811231944,0.028182924895,-0.068372043825,-0.008372132415,0.16632344755,0.18233425,78.0,248.32476963141025,741.8442007211538,34.25669147,-118.43118295,-151.56881705,120.91733495,107.965,-118.43118295,1
262.0,-4.904050016,-2.703296951,8.283313096,9.998684648,-47.92039508,-4.904050016,-2.703296951,8.283313096,9.998684648,-18.08877937,-30.31330764,334.0,202.0,445.0,197.0,15.0,15.0,15.0,15.0,-0.0113918107545,0.003815709325695,0.0021181320009999,0.0232853174349999,-0.115865800595,-0.06311948714,0.12768243217,0.21311803195,28.0,296.38392857142856,628.1908482142857,33.81092733,-119.1907194,-150.8092805,120.3133076,108.0887794,-119.1907194,1
263.0,-4.979586588,-2.6727875815,8.2282226085,9.9824569815,-39.464859505,-4.979586588,-2.6727875815,8.2282226085,9.9824569815,-17.995710255,-31.181145925000003,343.0,202.25,455.75,201.25,16.0,16.0,16.0,16.0,-0.0083905490825,0.00169551054,0.0078568559149999,0.026957438615,-0.076559564525,-0.037373351305,0.1739347281,0.21562765,93.0,1196.3585769489248,65.93199764784946,34.48315226,-118.22804395,-151.77195605,121.1811459,107.99571025,-118.22804395,1
264.0,-4.9218777795,-2.729256398,8.255569919500001,9.991414941,-44.188594705,-4.9218777795,-2.729256398,8.255569919500001,9.991414941,-18.293684075,-30.80293231,302.46153846153845,189.46153846153845,414.9230769230769,184.30769230769232,15.0,15.0,15.0,15.0,0.0015363576505,0.0045146417449999,-0.009568281663,0.03349382435,-0.039377604555,-0.03228757854,0.188881548,0.19617349815,2.0,1370.6953125,57.5625,34.282876599999994,-119.0088882,-150.9911118,120.8029323,108.29368405,-119.0088882,1
265.0,-5.004580666,-2.6712778775,8.220089273500001,9.9876449915,-41.00295429,-5.004580666,-2.6712778775,8.220089273500001,9.9876449915,-18.00254056,-31.33350006,240.66666666666663,174.83333333333334,345.1666666666667,162.66666666666666,16.0,16.0,16.0,16.0,0.006199839135,-0.0049098038384999,0.0055202002899999,0.0462166246449999,-0.036253313805,-0.047409481255,0.1836872424,0.1968387722,2.0,0.0,0.0,34.609924434999996,-118.09238275,-151.90761725,121.33350005,108.00254055,-118.09238275,1
266.0,-4.9467211655,-2.757524177,8.227235268000001,9.9880775755,-43.04423496,-4.9467211655,-2.757524177,8.227235268000001,9.9880775755,-18.529701505,-31.01692832,-1.0,-1.0,-1.0,-1.0,16.0,16.0,16.0,16.0,-0.0039151651595,0.01876732836,-0.029080446455,0.036690937205,-0.09030548936,-0.0580990343349999,0.1488535742,0.1866686618999999,54.0,721.5561342592592,458.09078414351853,34.54245348,-119.13710555,-150.86289445,121.0169283,108.5297015,-119.13710555,1
267.0,-4.97359155,-2.821981621,8.1834433345,9.983466908,-43.285981565,-4.97359155,-2.821981621,8.1834433345,9.983466908,-19.026273009999997,-31.28980428,292.42857142857144,163.57142857142858,399.8571428571428,169.0,17.0,17.0,17.0,17.0,0.0054239361715,0.0085221157239999,-0.000767117705,0.027606656135,-0.1207068668,-0.05721353032,0.14860728055,0.20132361655,0.0,0.0,0.0,34.945196179999996,-119.57058415,-150.42941585,121.28980425,109.02627305,-119.57058415,1
268.0,-5.152932528,-2.668557184,8.127031786,9.9877323385,-43.6300639,-5.152932528,-2.668557184,8.127031786,9.9877323385,-18.27613377,-33.44446004,288.3333333333333,180.77777777777777,396.77777777777777,180.22222222222223,15.0,15.0,15.0,15.0,0.0143524225125,-0.0126876817049999,-0.00612102673,0.07317752622,-0.077785872015,-0.020885701545,0.1398404322999999,0.1668859783,0.0,0.0,0.0,36.44429262,-116.5657537,-153.4342462,123.44446,108.2761338,-116.5657537,1
