Time (s),Gyroscope x (rad/s),Gyroscope y (rad/s),Gyroscope z (rad/s),Absolute (rad/s)
0.0,0.002196051014,0.06523265105,-0.0350438204,0.07408232415
1.0,-0.00120850220661,0.0023331838005,0.000282231419585,0.00269762036
2.0,0.00026419407320000003,0.0007002734471499999,0.00016127509693,0.00077469392775
3.0,0.0003997967212,0.0006359289276,0.0004945076439,0.0008996969199000001
4.0,0.00051022772175,0.00086095861675,0.00041041965714999997,0.0010834274314999999
5.0,0.00020795999339999997,0.0007490803844,0.00042865223125,0.0008891209917000001
6.0,0.00035530177075,0.00012609166131,0.00045280105505,0.0006366426266
7.0,0.0006440393673,-0.00016339713765,0.0003957605997,0.00079415901295
8.0,0.00011777326159000001,0.00032148917345,0.0005368763094500001,0.0006618674985
9.0,-0.03897127866969,-0.0846566934905,0.018774755535,0.108741808615
10.0,-0.37484470329999997,0.80294838945,0.3977850264,0.99502191935
11.0,-0.001871641449999989,0.27731995703,-0.38204054485,0.7460064216
12.0,0.58265615555,-0.16847836454999998,-0.17612089349499999,0.70565039575
13.0,0.03156111174,-0.024264474875,0.003559723322,0.084525179095
14.0,-0.009558092589,0.0041832412385,0.013841381384,0.0192041857075
15.0,0.006738540362000001,-0.005595821444,-0.0021729697259,0.009310669951500001
16.0,0.0008993452876499999,0.0002398958685,-0.0009754356050500001,0.0024524937475
17.0,-0.0013347636337,0.0011650003804999998,-0.004471139847,0.0058782890050000005
18.0,-0.0034302788625,0.0038546870235000004,0.002461567267,0.0057263881375
19.0,0.00506849433605,-9.549183185e-05,0.00011671223950000006,0.0063337497775
20.0,-0.002209044426,-0.0012307836280000001,-0.0011034611855,0.011359605895
21.0,0.001597896681,-0.00096234547985,-0.00140797402935,0.0030014024625000003
22.0,-0.0023045362568,-0.00027798733329999995,0.00194591136785,0.0037791192925
23.0,0.0022401061074999997,-0.00054975459305,-0.0047984968515,0.005395621359
24.0,0.0002206922380000001,0.0041793591965,-0.015300974834,0.021258625618499997
25.0,-0.016617701055,0.05093216096,0.023800809015,0.06002576906
26.0,0.019434710175,-0.036257188145,-0.01255929819,0.04489920787
27.0,0.00069284630825,0.0005952324264,-0.001760232792,0.0020406189065
28.0,0.0021082474784999998,-0.0011416579193,-0.007862160945,0.0085238123685
29.0,-0.00019098366849999997,0.0018270770811,0.00344513312465,0.004587629337
30.0,0.00022264027200000007,0.0008628642209999996,0.0025694178595000003,0.008732083912
31.0,0.0016509477029,-0.0016382154528499998,-0.0011331697525,0.006279803355
32.0,-0.0004628807486,0.0005469899529,0.0025896791053449998,0.0030452935741500002
33.0,0.00089608263525,0.0003431424746,-0.0043464232735,0.0045546464315
34.0,0.00016976325994999997,0.000367113050504,0.0029899554099,0.0031229890477499998
35.0,-0.0001114071393,0.0005082287575,0.0005708289610000001,0.002127537367
36.0,0.00074214979945,1.1153444350000012e-05,-0.0023943707151000003,0.0030430418190000004
37.0,0.00020795999339,0.00053899834835,0.0026525509298,0.003313431957
38.0,6.018531974999999e-05,0.0005682782685,-0.0014869521497,0.001698233561
39.0,0.00036923509035000004,-0.00055915773735,0.0004976185530000002,0.004138284216
40.0,-0.00085730446255,0.0012413938335,0.00203609809755,0.0026501059985
41.0,0.003693411915,-0.009043076648000001,-0.0071088364745,0.012219108905000001
42.0,-0.0014749923242,0.0045886245117499995,0.004985132067,0.0077979680785000005
43.0,-0.0014567809732000002,0.0026652831745000004,0.00094749119445,0.005820897807499999
44.0,0.0007734838529,0.0004891303935,0.0004795812155,0.0060980564275
45.0,0.001297627917,-0.0010366168919999999,0.003702961106,0.0060863233745
46.0,-0.0003002687697,-0.0006641987525,-0.0013570450504999999,0.003683217264
47.0,-0.0003068131387,-0.000337828887,0.0036560724845,0.0040573166695
48.0,0.0001655191784,-0.00021114305450500002,0.00017294632025000002,0.001063895985
49.0,0.0011119493515,-0.00062918507815,-0.0009655285325,0.0052632282535000005
50.0,-0.0005549136556400001,0.0013103601627250001,0.0032658207043499998,0.0042969065625
51.0,0.00037454019217,0.001421767297,-0.0034313398855,0.00374795689
52.0,-2.0159386199999994e-05,0.0029125009259,0.0038111851591,0.00550432847065
53.0,0.00016870223859999999,-0.000656771609,-0.00144510974455,0.0030801315629999998
54.0,-0.0001580877935565,-0.0015831739615,-0.00222047796025,0.0030707284410000004
55.0,0.00027374325664,-0.0011575732259,0.0020074505487,0.0024110962315
56.0,-6.578326414999997e-05,0.00082441282915,-0.00231090237,0.002679211378
57.0,-0.001963948708,0.0014472317889999999,0.00032042817199999995,0.0094919653015
58.0,0.00032679427815,0.00102388466215,-0.00059204937755,0.001534034482
59.0,9.124775218999999e-05,0.00036392998659999997,-0.0026472458187849998,0.0027721111555999997
60.0,-4.8806937228e-05,0.00029284162335,0.003959728028,0.0039712316539999995
61.0,5.83561215e-05,0.0006567716118,-0.0037602561945,0.0038826901619999996
62.0,-1.8037347249999985e-05,0.000275865296415,0.003092874382,0.003149619107
63.0,8.4881629955e-05,0.0006206969208999999,-0.00060372059305,0.00087116216325
64.0,0.0008488162996,0.0001771904016,-0.0017994905552,0.0022075817795
65.0,-4.8921527425e-05,0.00036586953274500003,0.003471119663,0.003509380094
66.0,-0.0005549136540499999,0.0007151277322,-0.0027204562354499998,0.00292875867825
67.0,0.00072043283335,-0.0005580967170000001,0.0036583982421,0.0038349360395
68.0,0.00029814672520999996,-0.00015066489315,0.00031830611099999985,0.002241097834
69.0,0.0012979971495,-0.00042879228200000006,-0.00023586058250000012,0.0060778656285
70.0,0.00010504100875,0.0011512071063,0.0043374512974999994,0.0045080594
71.0,-0.0005496085587,0.00050928977885,0.001316726277,0.0017398076405
72.0,-0.0005018626372,0.00085730446175,-0.0024711164485500003,0.0030450261165
73.0,7.533244935000003e-05,0.0010663254729,0.00231939053385,0.003089013967
74.0,0.0005952324301,0.00032255019201,-0.0016042628054,0.0021974994124999998
75.0,-0.0005230830438,0.00049974059185,0.00162548321625,0.00267675975905
76.0,0.002759713985,-0.0011883428201,0.0006122087571,0.0033766076475
77.0,-0.027004029515,0.019361499755,-0.022806632975,0.04034553398
78.0,-0.0039332026495,-0.003351763387,0.02639075985,0.030110948115
79.0,0.007769852325,0.041397832105,-0.002856267105000001,0.06256011689
80.0,0.005941714096,-0.03326298859223999,-0.013518460618499999,0.0378374413925
81.0,0.0050960808685,-0.0022313258485,-0.006809628782,0.0111917871245
82.0,-0.014689827084,0.0035491131256,0.01650204993,0.022534404825
83.0,-0.00059841548935,-0.0009358199702,-0.0014164622045000001,0.003129587759
84.0,0.00046260488240000005,0.00055491365865,0.0035692725205,0.0038440529935
85.0,-0.0008888634526,0.0018261094339999998,-0.0029213158795,0.003571991188
86.0,-1.0610203745e-05,-0.00038727243670000003,0.0003469536605000003,0.0043220637005
87.0,-0.00019125104455,0.0006315787461,0.00036667166504999993,0.0013552235905
88.0,0.00079576528175,0.00054324243265,-0.0027936666386500003,0.003067476389
89.0,-7.427142715000002e-05,-0.00014854285299999994,0.004156016795499999,0.0043345800115
90.0,-2.334244819999999e-05,0.00048700835000000005,0.0005517305945,0.002017333418
91.0,0.000473215087,0.00068117507945,-0.00019947183299999982,0.005085878367
92.0,0.00021326509529,0.0002673771353,0.00188543319965,0.0027382438913
93.0,9.549183350000004e-06,0.0006695038636,-0.0030886303074999996,0.003194393008
94.0,0.00045411672026,-0.00024191264445000004,0.00218464095,0.002380086872
95.0,-0.0002546448899,0.0013262754689,-8.488162994999999e-05,0.00151649273705
96.0,0.0005135338603,1.6976327850000005e-05,-0.0014939166893500001,0.0018136478735
97.0,0.00015172591354999999,0.00028647550018,0.0038737853759999996,0.0039115102165
98.0,0.0006303819130499999,0.00044152028659999996,-0.0031258254295,0.0033515264325
99.0,0.000924148746365,-0.005709350614,0.0032350511145000003,0.006785787776
100.0,0.0008603983980999999,0.00042209512649999986,-0.0026522411125000003,0.003739051929
101.0,-0.0014514758688,0.0057114726932499995,0.0004403234514999998,0.0078960335865
102.0,0.000232363462,0.0007151277324,0.0016329103441500002,0.0027727989655
103.0,0.001175610575,-0.0005411203900999999,-0.002982528269,0.003358280183
104.0,0.00038727243669,0.00054536447065,0.002246180131,0.0024120725565
105.0,-0.00034801468285,0.00108542384135,0.00047427610755,0.00134441478275
106.0,0.00011246815969999998,-7.321040585000002e-05,-0.00218145789155,0.00275816489535
107.0,0.000300268765955,-7.321040585e-05,0.0037273645714999996,0.0037553823104999997
108.0,-0.00012413938475,-0.00017188529975000003,-0.00153741852375,0.001779559971
109.0,0.0001793124433,0.00031618407159999997,0.0007522634435000002,0.0037388995364999998
110.0,-0.000507167739,0.00075332446495,0.00049231345395,0.0013781646545
111.0,4.562387610000001e-05,-5.198999649999998e-05,-0.0026270864425,0.0028361823790000002
112.0,-0.00028010937885000005,0.00015384795525,0.0027162121565000004,0.0027729677615
113.0,-7.002734290000002e-05,0.002533716648,-0.0017337072835,0.004319919164500001
114.0,-0.00023448550550000003,-0.001317787303,0.0028934025517,0.0046533193285
115.0,-4.986795759999999e-05,2.2281424150000006e-05,0.0009581013984999999,0.0022930123245000003
116.0,0.0011471540085,0.00038293498355,-0.0022208684308450003,0.00273926044825
117.0,0.00023872958425000002,6.472224285e-05,0.00322762396545,0.0032976667084
118.0,0.00051035080015,0.00108224077935,-0.0025496319599999998,0.0029567620405
119.0,0.0003862114163,-1.803734820000002e-05,0.0009931150704999999,0.0033266843255
120.0,-0.0244406043995,0.021979037041,-0.00315971869,0.0332294075795
121.0,-0.058706257255000005,-0.001984108115,0.0095693427855,0.061921054515
122.0,0.05814497746,-0.002566608273,-0.0021623595315000002,0.058425162475
123.0,0.02076522976,-0.0255525537115,0.0018175280049999992,0.04341106767
124.0,-0.0003596859050000005,0.03518025257,0.004054159114999999,0.04587080396
125.0,0.046013270450000004,0.0026652833005,-0.004952843245,0.05537306208
126.0,0.017985356645,-0.0072552573799999995,-0.0070335040293,0.0212844118
127.0,-0.005736937505000001,-0.00188967703,-0.006331108618,0.04166795908
128.0,0.015689308515,0.0022684614380000002,-0.002005328455,0.02025035072
129.0,-0.016634677129999997,-0.0074144103445,-0.002862632911,0.019687049446500002
130.0,0.015463311076,0.008712038285,0.00321913569355,0.018777792519
131.0,-0.014772586560000002,-0.003735852761875,-0.007420776543500001,0.017469132829999998
132.0,-0.040237075555,0.026983870209999997,-0.00390986017656,0.06174275759
133.0,-0.17235427155,-0.04777138117,0.00996192026,0.1966156258
134.0,-0.00013258954999999933,0.044181073525,0.142663355505,0.17844689479999998
135.0,-0.21344759087,0.16157642559500002,0.430800797055,0.530548521715
136.0,0.7085759321849999,-0.28947924795,0.30539349445,0.9535336732
137.0,0.16418016929999996,-0.4548021369,0.223898643275,1.0566593408
138.0,-0.04739234049999999,-0.026790250595,-0.101416499835,0.46573719469999997
139.0,-0.02149096762,0.023600276275000002,0.00084987737,0.050100548225
140.0,-0.1320315059,-0.09053136156,-0.048330673783,0.24254096613499998
141.0,-0.083584159325,0.0545831782,-0.035440121000000005,0.5132087627999999
142.0,-0.08992481564,-0.072415162,-0.15671852845,0.46185697165
143.0,0.04062116471675,-0.004906158105,0.040045030824999994,0.06840278109
144.0,-0.14086212580000002,0.19954185794,0.070302149225,0.5522741363
145.0,0.2467000437,-0.21624629772499998,0.047385994649999985,0.7619739513999999
146.0,-0.064231271975,0.018514489175000003,-0.012750580934999999,0.16776784035
147.0,-0.33979813896,0.461680735035,0.560157218645,0.81616342928
148.0,-0.3269628001,0.6906586578,0.1484030033,1.0064185516
149.0,0.35900367089999996,0.006600608000000001,-0.6241271979735,0.82706070425
150.0,0.427776890735,0.022247475760000003,-0.151872334575,0.47777881697
151.0,0.08726687113,-0.1396061978,-0.07396906492000001,0.19473890645000003
152.0,0.041267570451000005,0.0738247703,-0.05684737864999999,0.22238053145
153.0,-0.004363976775,-0.017134417985,0.008090280327500001,0.053232003060000005
154.0,-0.031547318819999996,0.05945639859,0.0001941667349999992,0.07142431222500001
155.0,0.015794349325,-0.04590186347,-0.0024732384975000004,0.05111415984500001
156.0,0.004235450177,0.0014668017155500001,-0.0007137930419999999,0.0052040701725
157.0,-0.00210588966115,-0.0003032497271,0.0035719377125,0.0043346812105
158.0,-0.00056520853625,-0.000228068247925,-0.00032955548685,0.0011532769516
159.0,0.000415919986795,0.000613269777385,-0.0008541214004999999,0.0024207303675
160.0,0.0006160949534499999,0.0001578773055,0.000657782107215,0.00118102825775
161.0,-1.533427065000001e-05,-0.0007940390173500001,-0.0014199694619000001,0.00186427933065
162.0,0.0005899273283499999,-9.230877245e-05,0.0019257519807,0.002614851665
163.0,5.72951002e-05,0.000386211416,0.0008201687494999998,0.002132545108
164.0,0.00034695366245,-0.00022387530010000003,-0.0013814485236000001,0.00202396341915
165.0,0.00148896526,0.00059601977455,0.0026479236999999997,0.0032908791795
166.0,-0.0011342307802,0.00025782795099999996,-0.001694449538,0.002257420189
167.0,0.00022087328505,-6.129497865e-05,0.0013854778789285,0.00177566203515
168.0,3.1653774505e-05,0.00080374398565,0.000279936752525,0.00087219976565
169.0,-0.00011836271734999999,0.00032021342275,-0.00129564902785,0.0022149831535
170.0,-0.0002877933558,0.0013047055965,0.00193589482835,0.002455408328
171.0,0.0006205032407499999,-0.0014416698514999999,-0.0020227385003745,0.0028748065259999998
172.0,0.0005286112970000001,0.00038968921099999995,0.00300080981,0.0041765874355
173.0,-0.0001421767311,0.0022175325805,5.0928977e-05,0.00233724045
174.0,0.000110346118965,0.0004275912088,-0.00031087896950000003,0.0020437292855
175.0,0.0001283834653,0.000524144065,0.0005114118202999999,0.0015266579705
176.0,0.00048488631115,-0.00021114305465000003,-0.00190240953135,0.00218424986225
177.0,0.0003756012135,0.00070876160825,0.0021655425799999998,0.002323238768
178.0,0.0004923134545,9.124774849999997e-05,0.00082971793295,0.0015531071909500001
179.0,0.000507167739,-0.00023554652315,-0.000881707934,0.003242633751
180.0,-8.488162995e-05,0.0009676505796499999,0.0024233705298,0.0028380039770000004
181.0,1.3793266749999972e-05,0.0006100867154499999,-0.002113552584,0.0024578612915
182.0,0.0007522634455500001,-2.7586529735e-05,0.0006790530365000001,0.0034373823325
183.0,-0.00020477693225500002,0.001489672605,0.0013623501606,0.0021487604015000003
184.0,0.0006746137303999999,-0.0007808261141,-0.00283727458,0.003123498452
185.0,0.0005750730429500001,0.00038939447745,0.005184145536000001,0.005242118343
186.0,0.0002476845962,0.000336649032555,-0.00145978578385,0.0015884442445
187.0,-0.0007077005908499999,-0.0004636659054785,0.00099099302607,0.00142739021275
188.0,0.0020276099325,0.0005803781467,-0.0030992405085,0.003790856351
189.0,-0.00020795999340000003,0.000432896312785,0.0016838393339999999,0.0019431535105
190.0,-0.00034589264115,-0.001173488534,-0.00051777794285,0.001898000652
191.0,0.00119789200255,0.00035119774115,0.0006578326285,0.0032824996335
192.0,-0.000413797946055,2.864754920000001e-05,-9.65528541e-05,0.0009478300505499999
193.0,0.0005822138785,-0.00010783672157,-0.0019816829098000003,0.0021483542442
194.0,9.811070145e-05,0.00033916863599999994,0.0037967856125,0.0039304726105
195.0,-0.00051247283905,-0.0024838486955,-0.000729982017495,0.0027471553270000003
196.0,0.00060159855145,0.001124681605532,-0.0026408797055,0.0032519777715
197.0,-8.488162904000001e-05,0.00259525583495,0.003730547633,0.004565100872
198.0,-0.0001326275468,-0.00021857019050000001,-0.0022376919687,0.0028935422735000002
199.0,0.0002698191653,0.000387731370115,0.0021190429453,0.0025837707259999997
200.0,-0.00017082428025,0.0003066348873,0.00026101101205,0.00111401393165
201.0,0.00086579262555,-0.00010928509855000001,-0.0006886022280000001,0.003452603472
202.0,1.4913702399999977e-05,0.00108656974225,0.0025502431020000002,0.0029232884560000004
203.0,0.00015384795432,-0.0008127416069500001,-0.0026302695075,0.0027927742025
204.0,0.0002026548915,0.0006748089534999999,0.0035140994635000002,0.0036350764315
205.0,-2.8647550095e-05,-0.000188861627595,-0.0022981701275,0.0023190797905
206.0,0.00016645287637,0.0003810421268,0.00177294381775,0.00264459271885
207.0,0.0002563382784,-0.00037089028305,-0.00046743040395,0.0008846295827
208.0,0.00087563889475,-3.8493818999999965e-06,5.977364299999998e-05,0.003448839436
209.0,0.00015703101545,0.00035225876339999994,0.0009771997648,0.00135194828955
210.0,0.00019734978965,-3.501367235e-05,-0.002032915036,0.0020504520195
211.0,0.00106178855345,0.00010172638939999999,0.002381422029,0.0028141984505
212.0,-0.00026554369015,-1.3296707350000014e-05,-0.0004411340751,0.0017258661705
213.0,0.00028965856219999997,-4.137979461999999e-05,0.0010037252705000002,0.0035294208989999996
214.0,-0.00045836080174999994,0.000773483853,0.0012955058774,0.0016208536924999998
215.0,0.00033528243833500003,1.8037345449999976e-05,-0.0009761387454499999,0.002042258851
216.0,0.00034270958096,0.0007649956884000001,0.0025963168544,0.0028748673365
217.0,0.0007119446713,4.137979460000001e-05,-0.0030599827559999997,0.003184230069
218.0,0.00034832025669999996,0.0003417546617,0.002760965998,0.0028095397335
219.0,-0.00016870223955,0.00044244549544999995,-0.00040743182380999996,0.0011370156445
220.0,-9.443081334999998e-05,-0.000290719582585,-0.0005909883494999999,0.0026271831004999998
221.0,-0.00063873426545,0.00086367058295,0.00123608873605,0.0016531957235
222.0,0.0004541167203,-4.456285758e-05,-0.0006917852842,0.0008287187239
223.0,0.00031830611235,6.047816224999999e-05,-0.00028329244249999984,0.0040169011535
224.0,-2.9708570500000005e-05,0.00069815140545,0.002300292171,0.002423679064
225.0,-0.000137932647735,4.3501836265000006e-05,-0.0027491037795000003,0.0027545366145
226.0,-0.0001503847838,0.00158494798925,0.0043591470185,0.004787430421
227.0,0.0025300582534,-0.0015419427078000002,-0.0002653611779999999,0.0045408065285
228.0,-0.0013925637474,0.00804724966,-0.012856774325,0.015405378635
229.0,0.0023957840148500003,-0.004217556073,0.0016859613270000001,0.007739038922499999
230.0,-0.0016626189164999998,0.002518862367,-0.0035809437585000003,0.0063293306045
231.0,-0.0039968637498500005,0.0129465706025,-0.0086908179035,0.017914993679999998
232.0,-0.11315464001499999,0.0234506722685,0.05653328769999999,0.16662200558
233.0,-0.08328153054000001,0.038022255044999995,0.028649141635,0.146755560445
234.0,0.089152237045,0.0485087903805,0.10265372110000001,0.1593885464
235.0,-0.503974068455,-0.15754879423,0.4675343857,0.76467260245
236.0,0.38359812309999997,0.34481676699999997,-0.5773436272,0.81971245645
237.0,0.15018743412000002,-0.11072702619500001,0.033079432054999997,0.192958982075
238.0,-0.007045175264499999,0.0007480193599999994,-0.000585683242,0.023386433855
239.0,-0.009465362844,-0.006502993933999999,0.02653718066,0.033625290210000006
240.0,0.006672757121,-0.0063629392114999996,0.0029315992985,0.009719849736499999
241.0,0.0043151698445,-0.004982551662,0.0025390217645,0.0070644461075000005
242.0,0.0040465025185,-0.0032898507005,0.001865524209,0.005625916294
243.0,0.002282254821,-0.001953338513,0.0030069317415,0.0043424995430000005
244.0,0.0035798827435,-0.00060478160964,0.00042759121185,0.0036960946359999997
245.0,0.0023989670585,-0.004496604344,-0.0006525275368,0.005308950903
246.0,0.00084775527755,0.00160320178395,0.000737409160225,0.0022205059465
247.0,0.0028159480725,0.00022069223975,-0.001851480553,0.0036833750089999995
248.0,0.003249905405,-0.0011077052719,0.0007310430304999999,0.004578811407
249.0,0.0030652878384999998,0.0016488256617,-0.0008530604164000001,0.0110464303545
250.0,-0.048276427159999996,-0.0052255253485,-0.07456851191,0.092111205325
251.0,-0.0164553649835,0.0074101662993,-0.015351903735,0.025961360235
252.0,-0.02104958322,0.007274355749,-0.0352142051915,0.05099407038
253.0,-0.003057860714,0.0014748182842,0.008696123011,0.010551543864999999
254.0,-0.0020626235985,0.00027692631774999996,0.00048382529085,0.0050481564895
255.0,0.0022790717605000003,0.00116500038517,-0.00102812874124,0.0030025167125
256.0,-0.044023857285,-0.006981514111,0.14285684453,0.158643987585
257.0,-0.016577157699999998,-0.012877383699999995,-0.134476753045,0.4282480745
258.0,0.08820050211,0.0005029240499999921,0.07567515628,0.2342075361
259.0,-0.016162917755499998,0.05004686693,0.01770535752555,0.06045772609
260.0,0.006658963804999999,-0.065506337095,-0.022459679417,0.076118973145
261.0,0.022058613684,-0.012700413814500001,-0.007811231944,0.028182924895
262.0,-0.011391810754500003,0.003815709325695,0.0021181320009999996,0.023285317434999998
263.0,-0.0083905490825,0.0016955105400000003,0.007856855914999999,0.026957438615000003
264.0,0.0015363576505000001,0.004514641744999999,-0.009568281663,0.03349382435
265.0,0.006199839135000001,-0.004909803838499999,0.005520200289999999,0.046216624644999996
266.0,-0.0039151651595,0.018767328360000002,-0.029080446455,0.036690937205
267.0,0.0054239361715,0.008522115723999999,-0.0007671177050000005,0.027606656135
268.0,0.0143524225125,-0.012687681704999999,-0.00612102673,0.07317752622
269.0,0.0206898972165,-0.0055353432155,-0.004281217094,0.022486910790000002
270.0,-0.0061125383675,-0.001959704561,-0.00176129379,0.0182726123
271.0,-0.0056966184675,-0.00135386197095,-0.0061390639369999995,0.0085251449065
272.0,0.0012933838854999999,0.00170612077125,0.0019077145674999997,0.0058402586225
273.0,-0.00096687822,-0.0002463646776,-0.0031274339055,0.009072491069
274.0,-0.002763958068,0.00136765524775,-0.0047915680271,0.006321345945499999
275.0,0.0017623548509999995,0.0006164528478000001,0.0028170089959999997,0.0089971948835
276.0,0.0007077006344999998,9.973592725000001e-05,-0.00557460109985,0.009970546365
277.0,-0.003757073165,0.00139099770165,-0.0028414125190000003,0.0066916421655
278.0,0.0013273365043,-2.015935745e-05,0.0002610111828,0.0016843933774999998
279.0,-0.008558047204,0.0015989534757,-0.0009046293425000002,0.009569061699
280.0,-0.0010462418745,0.0009183678639499999,-0.002711774395,0.0031212519365
281.0,0.00040154147655000003,0.00036614045205,-0.0011827387793,0.0015222278355
282.0,8.800574736500001e-05,0.00019217100145000005,0.0008625927229,0.0012412337344999999
283.0,0.00035756386621,-4.137979739999995e-05,0.00017400734114999996,0.0012520998514999999
284.0,0.00038833345705,-0.0002228142823,-0.0003448316217,0.0012838588045
285.0,-0.010820285769,0.019236299473499998,-0.0047279067628,0.0229992334415
286.0,-0.14263509089999998,0.10634925517,0.086740537665,0.21193026845000001
287.0,-0.408472685885,-0.06364636850000001,0.2901742188,0.64478284605
288.0,0.7943498793499999,-0.5461305295,-0.021118549299999997,1.29831637525
289.0,-0.009104615290000001,-0.385795497095,-0.08703656217,0.43648735913000003
290.0,-0.04190875541,0.008081383840000001,0.0014015784249999993,0.045110726195
291.0,0.05385063204,0.18216734875,-0.011378866799999998,0.4121961535
292.0,0.00440896935,-0.116833285525,0.09066724789999998,0.370076922
293.0,0.0065998800500000065,0.105708950665,-0.03762360997,0.26723816155
294.0,-0.026049309195,-0.042071604932,0.118528636475,0.16673031565
295.0,-0.31645755300000006,0.3825418485,0.5704402482400001,1.0736323488
296.0,-0.17015796000000002,0.60689834835,-0.26682752460000003,1.370565008
297.0,0.5007379545,0.01667181248,-0.215898547625,0.556013878
298.0,0.05479181671,-0.086361921275,0.129330543915,0.17211341895499999
299.0,0.025269438074999998,-0.00943450898775,-0.021280898269000002,0.037407696865
300.0,0.01304736752,0.0077496927518500005,0.0016339713749999995,0.020579380555
301.0,0.006482472433499999,0.000314929439,-0.003621687815,0.0082555830225
302.0,-0.0003392360345,0.0008982885205,-0.003219043112,0.0077824240555
303.0,-0.00434454583615,3.276111750000004e-05,-0.007439942309999999,0.0124861330385
304.0,-0.004141638297455,0.001667646122,0.003725255154,0.010916481004999999
305.0,0.007003201872,0.008507050847,-0.0021515556475,0.015748651125
306.0,0.0051836528699999995,-0.0295082481645,-0.0058505000325,0.03563992169
307.0,0.017052719430000002,-0.031076225675,0.009588441122,0.04002137032
308.0,-0.008167027485,0.017745953107,-0.004306500639999999,0.026672673735
309.0,-0.0030374192335,0.0168692892005,0.00810148424475,0.019758590083499998
310.0,-0.00309967416895,-0.00020448220605,-0.0042752047595,0.005598750995500001
311.0,-0.00044350653394999997,-0.0010673864879999998,-0.0100340696534,0.013134324292
312.0,0.010012765055000001,-0.009125385713,0.007654798858,0.016158979055
313.0,-0.0027682021515,-0.0040456706765,0.006111477339999999,0.0080335357585
314.0,0.004049588854999999,-0.0040653554305,-0.001947615206,0.0066569234545000005
315.0,0.00198623013753,0.0016944495279999998,0.0008169856885,0.0044555761659999995
316.0,0.00070133446755,-0.0022101054324999998,-0.0007034565075,0.0033137228905
317.0,0.00018584698144999997,0.0032043194170000002,0.0026612285617499997,0.0044110916095
318.0,0.0001411157098,0.0013644721999999999,-0.0012880787305000001,0.001949372798
319.0,0.00068320799555,-0.00057823912685,0.000524063419,0.00433212125
320.0,-3.4689471675e-05,0.0013779075814999999,-0.00017436943549999995,0.0018723977995
321.0,0.0007119446710000001,0.000354380803215,-0.002827619296,0.0029825839195
322.0,-0.00010504100964999998,0.0011013391506000001,0.0024414078585,0.0029417158415
323.0,0.00022387530644999999,0.0006578326088499999,0.00040849279224999997,0.0010967675065
324.0,0.00028329243999999996,0.00025570591025,0.001126803628,0.0049739950485
325.0,-0.0378030949545,0.029935628829999998,0.012369375505,0.05464830336
326.0,-0.044419617925,0.07594253346499999,0.04607480969,0.10456216330000001
327.0,0.038126533510000005,0.1121962313,0.086912052525,0.14834749190000002
328.0,-0.13392835785,0.1340673522985,-0.181911943815,0.35478071465
329.0,-0.03824766260000001,-0.025015677285,0.07737597199,0.183378555
330.0,-0.22067844469999998,-0.239317391615,0.41444941235,0.9257523398
331.0,0.27326685887,-0.62967633743,-0.77125676993,1.0536403317599998
332.0,-0.041877829979999996,-0.023193669603849998,-0.0024236483849999994,0.050710742295
333.0,-0.000629029306,-0.00478212407,0.0024621609295,0.0087862004905
334.0,0.40776729499500003,0.21232794076749997,0.154062116415,0.48806321915999995
335.0,-0.31180243215000003,-0.16919515065000001,0.11094350262500001,0.45226516569999997
336.0,-0.066576906358,0.07192126592,0.029242782505000002,0.12094978413999999
337.0,0.058022221718000005,0.251251105515,0.184243994975,0.38298981569999996
338.0,-0.59000614375,0.3813594156,0.61474412785,0.9366368552
339.0,0.19888932993500003,0.32360803175,-0.88680507285,0.9754070805
340.0,0.57825365635,-0.069530698585,0.20292865267,0.67431148955
341.0,0.02058364788,-0.02384790237,-0.025933110460000002,0.040962473565
342.0,0.029589622495,-0.05449652005,-0.0159747395595,0.06582057022
343.0,-0.0024594451715,0.015615356774999999,0.004140198358,0.019879065615
344.0,-0.00064254046275,0.0022288122315,0.0017659294675,0.003001618136
345.0,-0.00013104444350000004,0.00160001030385,-0.0072528868815,0.013311139921
346.0,0.0011159913209999998,0.00575115987645,0.011575239665,0.014702272589999999
347.0,0.00189563919535,-0.0010712474282500001,0.00016246663800000005,0.0034925713064999997
348.0,-0.0002939026428,0.0022684615565,0.003457865399,0.004458822997
349.0,-0.00037106999402,0.0014992195547,0.0006373688568,0.001696118459
350.0,0.0008913589726,-0.00039796752190000004,-0.001517394945,0.0021968726046
351.0,0.0003278552865,-0.00080213140125,0.0034292178309999997,0.004506325668
352.0,0.00043395733499999997,0.00164670361075,-0.000895501198,0.0031885571769999996
353.0,0.0007978873188,-0.001185159749,-0.0029708570419999998,0.0041458460475
354.0,0.00099858144675,-0.00092038849205,0.0031821274104,0.003700540326
355.0,-0.0008541214004999999,0.00108966791975,-0.001311421183,0.0021296070044999997
356.0,-0.00189073830155,0.0046546963456,0.0023894178796,0.0069470437495
357.0,-0.00325316486735,0.0019017686670000002,-0.008033150756111,0.0102827342665
358.0,-0.0115449627005,0.02988469981,-0.0110123304255,0.034178726685
359.0,-0.02726397961,0.033936736679999996,0.0012721634250000002,0.0617539422
360.0,-0.013282914015000001,-0.014614494598,0.0027575920040000005,0.03451813229
361.0,0.008497712189850001,-0.003570333568,-0.00703350409145,0.0128733833465
362.0,0.00146580388745,-0.0026919232765,-0.00502378717625,0.006395697586
363.0,-0.00028859754742000004,-0.001970314821605,0.003152291525,0.0042156057855
364.0,0.0013496179165,-0.0012477599605,-0.00015809203550000005,0.0022926855805
365.0,-0.014505778266500001,0.020351550532,0.009476282793500001,0.032744180617
366.0,0.013483446925,0.00032148912150000005,0.0137327867369,0.04617996092
367.0,0.043941098035,-0.009357138628,-0.010701451397,0.047974336614999995
368.0,-0.019492323909300002,-0.0011722662824999999,-0.0016221729849999998,0.026360042889999998
369.0,0.0051216175165,0.00131176920805,-0.0039544399159000005,0.011756713431500001
370.0,-0.002090210245,0.0035851878655,0.00629927811505,0.027244874445
371.0,0.006218640412000001,-0.020910589572,0.013484507893,0.033636519007500004
372.0,0.0323785392,-0.03770395319,0.009400351928000001,0.05561854674
373.0,-0.00762303246,-0.0044453486035,0.0061156832583,0.022172686395
374.0,0.003732669677,0.0035310758118000003,0.0078006217305,0.0101952374775
375.0,-0.001840870346,0.00065677160545,0.004304559651,0.0048867647225
376.0,0.0008965622105,0.0046865269835,0.001815405846,0.006227000900499999
377.0,-0.0010917899654,-0.0034759027365,0.0017559887190000002,0.0040654844045
378.0,0.00033740447885000004,0.0004350183517,-0.00138781465,0.0018135595675
379.0,0.000634490182985,-0.0005697679411,-0.0005984154915000001,0.0038951344765
380.0,-0.00026949917515,0.0006726869165000001,0.0014493538313,0.00166753941105
381.0,0.0006344901839,-0.0005092897805999999,-0.0021209797238499997,0.0026993732494
382.0,0.00036817406995,0.0005008016159499999,0.0042111898465,0.0044945735225
383.0,0.00016041354835000002,0.000268191998,-0.00012817550499999995,0.0020203241375
384.0,0.0006684428368,0.0002748042854,-0.0016191170765000001,0.0041089534684999995
385.0,-0.014625104812,0.074305379035,0.025973778830000002,0.088543291475
386.0,0.016728047300000007,-0.04493209098,-0.025023104150000003,0.2350471811
387.0,-0.030527215524999998,0.026113604172500002,0.0066065324849999985,0.056681083385
388.0,-0.005653116598,0.0055852112895,-0.0099025030735,0.014278220840000001
389.0,-0.00460907239,-0.006645170618,-0.002707724064,0.024182055485
390.0,6.366125949999995e-06,-0.00169869362895,0.008186833208,0.008373348622
391.0,3.6074691800000024e-05,0.00031830611325,0.0017039987101500002,0.002615261423
392.0,0.0003289163161,-0.00041591998405,-0.0013209703655,0.0015059998745
393.0,0.0035873098757499998,-0.0017284021901,0.0032276239755,0.005762874058499999
394.0,0.004633475955,-0.008237762169,-0.0012201734029999999,0.011481932154
395.0,0.0004148589664,0.0017284021865,0.0021517493155,0.0028153346295
396.0,0.0010132744577,0.0008350230309999999,0.002236630954,0.002729818588
397.0,9.549183459999999e-05,0.0011405969024,0.0005400593674999999,0.0038280688585
398.0,-0.00053369324835,0.0013199093450000001,0.00021750917675000003,0.0016333848825
399.0,0.0004519946795,0.000234485501805,-0.0008222907891500001,0.0010399032603
400.0,0.00026313305285,0.00038727243763000003,0.001484367503,0.0016350394
401.0,0.00259101175285,-0.0018716399349999998,-0.0013400687305000001,0.0072083091415000005
402.0,-2.9708572999999914e-05,0.0030960574445000003,0.0017379513735,0.004318038263
403.0,0.0034790857809999997,-0.0058706257295,-0.0041146370075,0.008160934957
404.0,0.0008217263254499999,-0.002225197401,0.0006381443175000001,0.003199794811
405.0,0.00130823813005,-0.002513557271,-0.0015215032184999998,0.004155547381
406.0,-0.00444592150345,0.0103467354075,-0.009690197295,0.026134290145
407.0,-0.0114993387865,-0.017208689484999998,-0.039483751195,0.04564463196
408.0,0.007916272999,0.003937446611,0.0014801234475,0.0113124491985
409.0,0.00022281427800000008,0.0033262988835,0.0052340135355,0.0066848894865
410.0,0.0052414406405,-0.005445156553500001,-0.0027045409225,0.0083140048175
411.0,0.00117879363595,-0.0011713665140500001,0.005836673091,0.0062675129595
412.0,0.02035992002,-0.028687868859499997,0.019569459795,0.04162686786
413.0,0.0081836501245,0.0022758887349999986,0.013936502577,0.05148110644
414.0,-0.00178251422345,0.0059841548935,-0.0025050691255,0.010119358128000001
415.0,0.0030319920245,-0.0036310053990000002,-0.0027031767573999998,0.0064160764745
416.0,0.0038345276380000004,-0.0054578887833500005,0.0004435065119999999,0.011364521882
417.0,0.0019060894205,-0.0023549936595000003,-0.0030749928235,0.0043363033044999996
418.0,0.00092096568505,0.00053793732985,0.004448858423,0.0046002965109999995
419.0,0.00040106570155,-0.000333160397585,-0.001237149757,0.0013721664135
420.0,0.0005931103893499999,0.0001803734637,0.00013474958800000002,0.0030075570105
421.0,0.0003978826404,0.00126579730765,0.0004763981481,0.00152796235385
422.0,0.001384631589,-0.00067268691643,-0.0013506789355,0.0021085494675
423.0,-0.00036711304955000003,0.0004954965149,0.002142200132,0.0022403933205
424.0,0.00048114747745,-0.0005805423485499999,-0.0013513483898,0.00191099942855
425.0,0.0003607469273245,0.00020477693675,0.002675893374,0.0030525334835
426.0,0.00042904800875,0.00011953741850000003,2.4681354900000043e-05,0.0011129679785
427.0,0.000199471830395,-0.00023872958345000004,-0.0019459113605,0.002976332846
428.0,7.533244655e-05,0.00039576059875,0.001677473212002,0.0019919860588
429.0,0.00047321508705000005,-2.6525508450000006e-05,-0.0021305289082,0.0024094206528
430.0,-0.00016870223954999997,0.0011066442489499999,0.0019543995287,0.0022923163546
431.0,7.9576528075e-05,0.00046260488235,0.0007002734468999999,0.00089777477675
432.0,0.0010302507838,-0.0004010657025,-0.0011236205765499999,0.002487694716
433.0,-0.000263133052885,0.0012456379195,0.002786239501,0.0031332090935
434.0,0.001136352821,3.0769591789999996e-05,-0.0028743042,0.0031636218889999996
435.0,0.00017012114190499998,0.0009444260151,0.0041641470815,0.0045185544464999994
436.0,0.00072275697415,-0.0012352213931,-0.0021415517294999997,0.002585815587
437.0,0.0005231504109499999,9.422873269999999e-06,0.00042396606165,0.00069122828655
438.0,0.0009152732258000001,-0.0005625597392000001,0.00031354415199999985,0.0033361883475
439.0,-0.00022931513362649998,0.00077430066865,0.001750199431,0.001938907805
440.0,0.0003179271765,-0.00052349987495,-0.00018059661474999997,0.0010300722635
441.0,0.00010716305779999999,0.0019225689185,0.003359190502,0.0038951703355
442.0,0.00061857487835,-9.549183499999998e-06,-0.002004267487,0.0023634360055
443.0,0.0002058379517,-0.00022493631847,0.0008350230349999999,0.0023245728525
444.0,0.00013873262435,0.00063891110305,0.0001460881902,0.00088923752505
445.0,0.0009139090575999999,-0.0009095555002000001,-0.0012409643774499999,0.0024646458365
446.0,-0.000117747999155,0.00093657362985,0.0019152596651499999,0.00213810794115
447.0,0.0007313251346,-0.00015297640275,-0.00095751194215,0.00176370908095
448.0,0.0005132938674,0.0001298528934,0.0015356375195000002,0.0032572572444999996
449.0,0.00044914423984999995,0.0008264254004,0.00088877719,0.0023082292375
450.0,0.0008986842574,-0.00110346118955,-0.0023236346190000003,0.003136150314
451.0,-0.0007013344666,0.00028329243994999997,0.00300480969305,0.003217541055
452.0,0.0009828332778,0.0005579956674,-0.002022734294,0.002317061597
453.0,-9.2835072345e-05,0.00036408998635,-0.002174060219,0.0022120362524999998
454.0,0.0003374044791,0.0006610156916,0.0028636939905,0.0031357626845000004
455.0,0.000141663061595,-5.78803447e-05,0.00035415765374999995,0.00111076151145
456.0,0.0004456285573,-0.00013474958755,0.0007055785435000003,0.0043445254025000005
457.0,-0.00012307836343,0.00063024610235,0.00130717710145,0.002214615796
458.0,0.00028223141963,-9.01867328e-05,-0.002283315846,0.0023303285825
459.0,0.00016127509693,0.00054642549195,0.00273637154595,0.0028904504229999997
460.0,0.0002037159119,-0.00029496366410499997,-0.002877487248,0.002935875044
461.0,0.00021326509525,0.0012169903684999999,0.0030175419375000003,0.0032794736975000002
462.0,-9.655285409e-05,9.124775219999999e-05,-0.0022217766639,0.0022379168396
463.0,0.0008403281359,-0.0005506695810499999,0.0027522868515000003,0.0031172679545
464.0,0.0006258378154,-0.00051636746005,0.00024230842249999994,0.002081889969
465.0,-2.546448897e-05,-0.0005538526328,0.0005400593670000001,0.003992185899
466.0,0.0008371450625,0.0004180420175,-0.0007352871167499999,0.0035957950935
467.0,3.2891628000000046e-05,0.00048170325500000006,0.00189286034505,0.0039929414755
468.0,-0.0003533197849,0.0002504008115,0.001393119747,0.0033196892784999998
469.0,0.000805314464,-0.00041804202755,-0.0032721868334999998,0.0034305415724999997
470.0,0.00063767324505,-0.00026737713625000006,0.0021793358445,0.0023833674740000002
471.0,0.00113368328915,-0.00020448410550000001,-0.00048304013015000005,0.00200411236
472.0,0.0007506294704,-0.0006643939832999999,-3.9499670000000056e-05,0.0025167915845
473.0,-0.0008065070501,0.001352512379,0.001112136092,0.0019444333805
474.0,0.0016138119884999999,-0.0006652597747,-0.0003819673347,0.002204095035
475.0,0.00030345182804,0.00060478161415,-0.00162230014995,0.0029696930085
476.0,0.0001109530226,-0.00014196452794999997,0.003065105373,0.0031817171915
477.0,9.655285405000001e-05,0.0001050410145,-0.00065464957102,0.0019542191015
478.0,0.0003816490287,-0.00012671978999999998,0.0008906374700000002,0.0041713886545
479.0,0.0016286662746,-0.0026164762545,0.003182000092,0.0046435332605
480.0,-0.0025378975611,0.0037957625107500003,-0.0008871940782000001,0.0061513835845
481.0,-0.00027374325549999997,0.0019490943989999999,0.00397882639,0.007716645578
482.0,0.0021231017737,-0.007154460375,-0.009961920324000001,0.019040472455
483.0,0.00038302835684999995,0.0036828017025000003,0.008557129306,0.0094980924235
484.0,0.0016329103480000001,-0.0013358246495,-5.729511600000001e-05,0.002202078237
485.0,0.000115133327,0.00144422978865,0.00025443855825000005,0.0021728526445
486.0,0.00047321508960000003,0.00014535979875,0.00179312450335,0.002278441458
487.0,0.0006373719915,-0.0008098428699999998,-0.0021935449619999996,0.013714315769999999
488.0,-0.0007257379389999999,-0.0029857113429999998,0.0037835987065,0.011107384434
489.0,0.014700437303,-0.029102727865,0.005341176500000001,0.039101122555
490.0,-0.0106208139415,0.0245838421535,0.007102470341999999,0.035827603765
491.0,0.0036191403559999997,0.0014843676444999997,0.00281807014,0.04472135489
492.0,-0.00158410331035,0.003815429278,0.0031501693484999997,0.009663629469
493.0,-0.09233423695000001,0.12121308965,0.07957971098,0.17479635035000002
494.0,-0.042359116605,0.01713229574,0.15500871043,0.16320154227
495.0,-0.07706084824999998,-0.2947461562,0.24575778194999998,1.0597949813
496.0,0.27971255655,0.010555029699999996,-0.14081649910000002,0.8611803437000001
497.0,-0.29552633995,0.24162057863499997,-0.11942903855,1.1385121404
498.0,-0.221070831,0.39570978035,-0.1400225597,0.9964452147
499.0,0.41689053395,-0.02311731839999999,-0.11217749918135,0.5025437124000001
500.0,0.015272327261500001,0.02919291469,-0.0029018908104999994,0.06113782115
501.0,0.0033294820037,-0.03313036112,-0.025404010765000002,0.042707555105
502.0,-0.00118197670635,-0.0016689850145,0.0021294678925,0.0030842163335
503.0,0.00123502771615,-0.0007193718111499999,0.0009814438425000001,0.0028881561840000004
504.0,-0.00018005988275,-0.0005467863267,0.0026593680978500003,0.00288902272745
505.0,0.000272682236255,0.00098568792625,-0.002249363194,0.002562483323
506.0,0.00018715220500000005,0.0006015775003,0.001603264941,0.0021016590869999997
507.0,0.00034439374025,0.0010242551766,-3.991457595000001e-05,0.00114456490005
508.0,0.00079894834215,-0.00016976325899,-0.0008456332385,0.0021768004195000003
509.0,-0.00040637080345,0.0007543854863,0.0008647316051,0.00133288332075
510.0,0.00088426364295,-0.00013909892900000002,-0.0014552441778,0.00179001709
511.0,-0.00021190934705,-0.00055970509,0.0024104446125,0.002576764311
512.0,0.000396762674465,-8.311326249999993e-06,-0.00064878869635,0.0015850549798
513.0,0.0,-9.6552854065e-05,0.0008880740505,0.003256659184
514.0,0.00016658019879999997,0.00076605670925,0.0007342260993,0.0016220595745
515.0,0.0009984201721499998,0.0007193718138,-0.0012594311845,0.001831257395
516.0,0.0001527869339,0.00046048284253,0.0014398046479999998,0.0016216434954999998
517.0,0.00018673958500000002,0.00053793732985,-0.00029602468444999997,0.0008912183130000001
518.0,0.00011989530235000003,-0.00029071958259499996,0.00022281427699999998,0.0026304643535
519.0,-0.00037772325335,0.0007840940567549999,0.0010801187412499999,0.0014798972544500001
520.0,0.00117561057515,0.00018143448399999997,-0.00103237282445,0.001908984873
521.0,-0.000423347129415,-0.00025994999175000004,0.0017188530060000002,0.0018258895235
522.0,0.0010159270051,-0.00026868235880000003,-0.0007851803393499999,0.001451082359
523.0,0.003461823167,-0.0033997408768499998,-0.0006441783049,0.0057209345385
524.0,-0.0012785295474,0.0021655425835,0.00155333382085,0.0031464718379999998
525.0,0.0001088051132,-3.862198465e-05,-0.0012094327045,0.0014152043705
526.0,0.00118728180165,-0.0008191077293145,0.00030239080800000006,0.003490573731
527.0,-0.0005418066813,0.00021360613569999998,0.00074082800365,0.0010415048793
528.0,0.00048170324999999997,-0.000360746927315,-0.0010673864967,0.0013129484485
529.0,0.00041237062109999995,9.6839165000001e-07,0.000961903388,0.0015896474745
530.0,0.0007906917509,-8.840994375e-05,3.537155625e-05,0.0008673693963499999
531.0,0.001477420347,0.00013738529876,-0.001852587888,0.0023759677160000003
532.0,-0.00033740447905,-1.0610204699999987e-05,0.00249658094,0.0026973677844999997
533.0,0.0009268223491,-0.00030647489124999996,-0.0005886431569,0.0014042696277000001
534.0,0.00025997525415,-0.0005421435178000001,0.000760903182,0.0034165676
535.0,-8.243117815000001e-05,-2.2193009499999985e-05,0.0005738478171,0.00143509206965
536.0,0.00068684227655,5.345942830000002e-05,-0.00036665832660000004,0.00116184695695
537.0,0.00045411672029999994,1.379326600000003e-05,0.000849877319,0.0032516342485
538.0,-0.00021676814664999997,0.0006434962259499999,0.000992306673,0.0023102990590000002
539.0,0.00062563150585,0.00070172182415,-0.0017627590399999999,0.002042268071
540.0,0.00056539333725,-8.982884705000004e-05,0.0009542994084,0.00177170783
541.0,0.00041379794605,0.0006313071228,-0.00022387529904999997,0.00097187183765
542.0,0.00050822875935,0.00037347917183,-0.0023819907405,0.0025233574244999998
543.0,-0.00053621948735,0.0009406492963,0.002317933739,0.002751516962
544.0,0.0002039643254,0.0006816424346,0.00029167955325000005,0.0014454671120000002
545.0,0.0002588889714,0.00029708570485000003,-0.00028329244150000006,0.0027451254275
546.0,-0.00020924837709999998,7.92607482e-05,0.00129142178885,0.0017943709034
547.0,0.0010959119453,-0.00014372615583500001,-0.0022467780095000002,0.0025202519995
548.0,0.00040000468212,0.00023660754075000001,0.00235440421005,0.0028805820955
549.0,0.023240308195,-0.007291988799,-0.0098780027605,0.02689599905
550.0,-0.0025061301035,0.004323657962,-0.007653139966,0.0092128500295
551.0,-0.0089677441785,-0.0013506789419999998,0.005503512619,0.012610384714999999
552.0,0.0005107128944,0.00055401262965,-0.0009865258029999999,0.0030851333655000004
553.0,7.4271426000000135e-06,0.0009156605822,0.00214432217665,0.0024215843740000003
554.0,0.0007255274161999999,0.001532921815,-0.002570427111,0.0032041345355000002
555.0,-0.00028921226005000004,-0.00104603556515,0.0028214805325,0.0031298705384999997
556.0,0.00040534767665,0.0010916215494999998,-0.001351916794,0.0017864407964999999
557.0,0.0013601144385,-0.002263686971,-0.000347690482,0.0036459690105
558.0,-0.0052634905038,0.016221178419,-0.0042681186591,0.017681776505
559.0,0.011527771634499999,-0.014238602892000001,0.0032322638845,0.025847205025
560.0,-0.0006988672349999992,0.004752988149,-0.0009941424204999998,0.01656222678
561.0,-0.00354610271155,-0.005259654845500001,0.0014789150379000001,0.0083919798615
562.0,0.010416975929,-0.009280905199,0.0040993658865,0.0168895211775
563.0,-0.007916272905,0.011440982785000005,-0.011042039081,0.1085754042
564.0,0.013272303876000001,0.008481796803,-0.0079162730555,0.022132810825
565.0,-0.00496133126,0.007999032632,0.0054663769835,0.0115392353905
566.0,0.0020216774825,0.00415854724,-0.00116143416195,0.0053928707505
567.0,-0.00021349665977,0.00303173517,0.0026018872090000002,0.004005729552
568.0,0.0003437706013,0.0014408656641500001,-0.001306116082,0.001978583743
569.0,0.00122378595245,-0.0009162542473499999,-0.0020269615334,0.0026842992935
570.0,-0.0011688318336,0.0007186307838,0.003644937604,0.003896644293
571.0,0.00048296215920000005,0.0005220641274000001,-0.0014943293062,0.0024254862775
572.0,0.00055539364105,-8.591738795499999e-05,0.0011534596699999998,0.0030639336425
573.0,-5.5008853949999986e-05,0.0009102502205,0.00037218657955000005,0.00113620291785
574.0,0.00058182652185,-0.00022103749055000003,-0.002043807338,0.002165323581
575.0,-0.0006667965701999999,0.00032422172105,0.0024018006645,0.002515193806
576.0,0.00050515516855,-0.00054002989805,-0.00134003504965,0.00217189729555
577.0,-0.000387983993985,0.00030780116645,0.0017254001750999998,0.00193622525745
578.0,-0.0030351582516,0.0022478348185,-0.0007788689365,0.005732002818
579.0,0.0004950038983000001,0.00188088597,0.00051645589065,0.002042907114
580.0,0.001426011372,-0.0064541869495,-0.02042570322,0.026093735385
581.0,0.0087375027553,-0.015772067875,-0.019834714859,0.028222509426
582.0,-0.0038005749664,0.0056881301940999995,0.0116500036795,0.014918516369999999
583.0,-0.0151598591475,0.062488795089,0.01255399302935,0.066561488024
584.0,-0.58534159705,-0.24147126149999998,-0.09070663161,0.7067793096999999
585.0,-0.38349543915,-0.0031388353500000077,-0.09585490891500001,0.42703697045
586.0,-0.035022880005,-0.9737189321499999,0.23770254629999998,1.0479797645
587.0,-0.391852979068,-0.905843085035,-0.009221100664999999,1.0072794848
588.0,-0.12565433980000001,0.63036601879,-0.05166246249999999,0.7474470017000001
589.0,0.10786792840000001,0.38491831405,0.05540993080000001,0.7004406035999999
590.0,0.34480835885000005,-0.008237898300000046,0.11749787175000001,1.00065684695
591.0,0.13841435165000002,1.7079276821,-0.25097376005,1.8448755275500002
592.0,-0.2815965306,1.7650332930000001,-0.42107219711,1.8930362085
593.0,0.2572465127,0.5382344165999999,-0.04873054391,0.60919763585
594.0,-0.01246676120000001,1.4293375525,0.032970071525000005,1.5226445009999998
595.0,-0.21447996284999998,-0.223511369465,-0.096841452095,0.4166643222
596.0,0.0622956885,-1.5541847645,0.6176486077,1.800234069
597.0,0.5519703846,-0.7142576942,0.575123973205,1.2948615662
598.0,-0.37795595915,0.10784590487000001,-0.111415096785,1.0567546887
599.0,-0.42746695219999997,0.009211155600000007,-0.11758173535,0.67365866895
600.0,0.07157475150000003,-0.08180318117999999,0.14571399395,1.321079705
601.0,0.05482622799999992,0.137936927225,-0.0033064178000000166,1.3087521045
602.0,0.28765004529,0.06911745795000002,0.15923981938,0.47077237475
603.0,0.4281768933,0.016052177073500002,0.027171670499999995,1.31871021225
604.0,-0.6162628601,0.07789509497,-0.16265086229999998,0.87894698985
605.0,-0.24504265800000002,-0.1383305314365,0.11515041950000002,1.475271284
606.0,0.16526771699999998,-0.763680022255,0.26564130585,1.01737018685
607.0,-0.010753440305,-0.207609857,0.175416375505,0.2916720156
608.0,0.14635821165,0.07237750415000002,0.10034494114999998,0.6881290113
609.0,-0.17651665334999997,-0.01837581286,-0.047331058400000015,0.5308422014499999
610.0,-0.22731831125000002,-1.506664843,0.31432834714999996,1.589823473
611.0,0.1867120969,0.19395269965,-0.0016170715419000002,0.27089906915
612.0,-0.2574417377,0.7902182677,-0.20303898052150002,1.0233325902
613.0,0.24828937636999998,0.7555727662,-0.006248348799999998,0.84937561515
614.0,0.08003807164999999,0.69017465565,0.09128594884999999,1.3683705865
615.0,-0.18551516990000003,-0.05969831145,-0.14012365608,0.5980862497499999
616.0,-0.182249347815,-0.04292676235000001,-0.04035484839999999,0.34367452315
617.0,0.07315735450000001,-0.260891116765,0.1534373393,0.43046740640000003
618.0,0.12415954389999997,-0.56901992255,0.37362347015,0.8454674464
619.0,-0.010876519599999995,0.09470561714,0.27580481915,0.34561846875
620.0,0.62821318785,-1.2392166254,0.78183726745,2.3502717465
621.0,0.20388249298049999,-0.15203785365,0.4250235408,0.6064091819
622.0,0.03780097534999999,0.7627484505,0.2499212273,0.890799594
623.0,-0.78665748165,0.427875564205,0.9953177504,1.4248740745
624.0,0.44548850245,0.06609520375,-0.57709640855,0.7516079305000001
625.0,0.39039077495,0.11857857659999999,-0.29653185091,0.55118601435
626.0,0.105573649538,0.037342611369999994,-0.47025484014999996,0.6741464447500001
627.0,0.2122953223,0.17032241664999997,-0.27625999675,0.3926942481
628.0,-0.003193671704999998,-0.00023236340650000008,-0.006309888599999994,0.22766150755
629.0,-0.00021644804999999823,-0.018811891294999997,-0.027359471415000003,0.11887279485
630.0,-0.008336437064999999,0.049176172455,0.042736839345,0.10357568001999999
631.0,-0.00812211093,0.026670869015,0.03335954167,0.066678205195
632.0,0.0084775527795,-0.034873617755,-0.039051916012999996,0.054875901234999996
633.0,0.0048934260165,0.007947042585,-0.009455813621,0.02623741323
634.0,0.006973025839999999,0.0087894927694,0.037166482699000004,0.05671031553
635.0,-0.007822445135000002,-0.00365746028,0.007304484540000003,0.13449784685
636.0,0.008669597477,-0.0002960247130000004,-0.01941242889,0.02266637688
637.0,-0.0041708710744999995,-0.006745967532,0.003780415596,0.008874156444
638.0,0.0104043657855,-0.014034116499,-0.016304700079999998,0.02536797407
639.0,0.02093817604,0.038192489355,-0.04061692102,0.06069977930499999
640.0,-0.019769992575500002,0.011086601825000002,0.007257379293500001,0.05125612405
641.0,0.022854378930000002,-0.026892622435,-0.02965870258,0.073632662
642.0,5.623407900000007e-05,0.002864755004,-0.00074801936785,0.003483772138
643.0,0.0021931291119500003,-0.0005029236538,-0.0004031877425,0.0029185196125
644.0,0.0022451191067000002,-0.003643543958,-0.003179878042,0.0058124982775
645.0,-0.0014610250622,-0.00010397999949999994,0.0166866674345,0.016854030931
646.0,-0.0021358339975,0.00176872096775,0.0005209609974999999,0.0037389157575
647.0,-3.6074716000000047e-05,0.0035873098730000003,-0.019266008047499998,0.020018100644
648.0,0.00022281425083,-0.0059353479715,0.013247900344999999,0.01451947282
649.0,-0.00246368930215,0.00060265956715,0.0044085396579999995,0.005284206357
650.0,0.002025547311,0.0006163976700499999,-0.0007100051279999999,0.002981617345
651.0,0.000351197744885,3.2891628500000044e-05,-8.169856883500001e-05,0.0013138213245
652.0,4.668489645000002e-05,-0.0008764028293000001,-0.001180915676735,0.0017812537195
653.0,-1.4854285250000016e-05,0.0021008203454,0.002696052751,0.004668975944
654.0,-0.00082229079025,0.0014196452655,0.002999504597,0.003635390118
655.0,0.0012085022065,0.00029814672707,-0.0021740307465,0.0025528677545
656.0,-0.0005167169223499999,0.00112574261265,0.0040244502719999995,0.004284010495999999
657.0,6.896632245000003e-05,0.0010153964991,-0.0012997499585,0.0017859148615
658.0,6.790530395e-05,-0.001001603234615,-0.003346458262,0.0036166806150000003
659.0,0.00020159387025,0.0009581013973000001,0.0038992498725,0.0042629579625
660.0,-0.00013368856719800002,0.000454116720255,-1.6976326000000007e-05,0.0006588601729
661.0,0.000945369153865,-0.00108011874025,-0.0030727150024999995,0.0036529749675
662.0,3.6074691804e-05,0.001030250786315,0.0029538807225,0.0032243428825
663.0,0.000315123051235,0.00089656221435,0.0006610156932,0.0014383424312000002
664.0,0.0011978920028499998,-0.00110346118855,-0.002871121132,0.0036705206890000003
665.0,-0.00064934446915,0.0016403374973000002,0.0036403608964999997,0.0043830803155
666.0,0.0002694991751,0.00011034611894999999,-0.0014854285245,0.0016074964465
667.0,0.0007458973223499999,-0.0008000093658999999,-0.0008710977209999999,0.0035825680104999997
668.0,-0.0007978873215,0.0008689756866999999,0.0010907289452,0.0019606201625
669.0,0.00076287364925,-0.0009496132352,-0.0023936619572,0.0028556715785000002
670.0,0.00019841080815,0.00109497302635,0.003415424579,0.0044980954095000004
671.0,0.0004657879444,0.0007734838521,0.00035013672149999996,0.0023162139799999997
672.0,0.0009028010163,-0.00048172446930000006,-0.003187373087795,0.00367525121095
673.0,-0.00028329244,0.00096871159981,0.00266103908967,0.0029500613210500003
674.0,0.0078097423085,-0.01656661931,0.014533288367000002,0.023806019244999997
675.0,0.0010472271354999999,0.0013230924526000001,-0.0103460097865,0.0108333473185
676.0,0.0031172778245,3.607471050000007e-05,-0.006510420824,0.0111656422495
677.0,-0.001781453246585,0.0007830331285,0.0034164857649999995,0.016019593960000002
678.0,-0.0070844330050000015,0.005552319569999999,0.033214181865,0.08135911995
679.0,-0.0038398327350000006,0.0017337072805,0.021005020455999997,0.03450425958
680.0,0.00016658022999999945,-0.01592803785,0.029767987755,0.09679866403000001
681.0,0.0030631658399999998,-0.0012063799904999998,-0.03264971908,0.078858084605
682.0,-0.1381299983,-0.08626520041499999,0.3094911548,0.35029947279999996
683.0,0.01221871068,0.0016912664710000001,-0.022432092810499998,0.032724235965
684.0,0.011907831658,0.011381565610999999,-0.03322160898,0.037561709015
685.0,0.103796439975,0.057215523705,-0.22676021340000002,0.2559075066
686.0,0.02043100831,0.01252216239,-0.04999315817,0.05543957536
687.0,0.0014610250465000002,-0.006787347308,-0.006287606694,0.0160630407505
688.0,-0.0266952726725,-0.006839337344500001,0.0835723306666,0.093940836625
689.0,-0.01575509142,0.00409447758,0.025775367865000003,0.1295061871
690.0,0.04822549807,0.0126240203415,-0.080076268605,0.09477271267000001
691.0,-0.012086083096,-0.0018811891390000004,0.011920563899000002,0.0207001645425
692.0,0.020038430787500002,-0.0009506741925000002,-0.055754498675,0.06152211599
693.0,0.0017644768540000001,0.006229250628,-0.0033517633559999997,0.013544846975
694.0,-0.006028717794999999,-0.014559321634,0.05087168285,0.06580609608
695.0,-0.084792563595,-0.020939173454,0.1650628928,0.18876660085
696.0,0.038640239980200004,0.019115343065,-0.06054182258500001,0.10673479568
697.0,-0.055791634354999994,-0.035026404505000004,0.07646137222,0.104720723525
698.0,0.043720405555,0.0049974059895,-0.09352788483,0.10351987473499999
699.0,0.047052009435,0.004552838389,-0.119342510315,0.129131276815
700.0,-0.002473238481,0.0028191311435,0.004469017836,0.0086932282805
701.0,-0.008541214011,0.0005209609999999995,0.0243323802025,0.032346779230000004
702.0,0.008578349722,0.00557035696,-0.014403351544999998,0.01938207987
703.0,-0.006505115976,0.0010949730339999998,0.02178062625,0.023269578025
704.0,0.00012986889205,-0.0005680108914999999,-0.00035963497600000006,0.0026493688435
705.0,0.0007289209962,-0.00108330180245,-0.003037701323,0.003408885394
706.0,-0.00140160791485,0.00051989998255,0.001694449538,0.0025047327535
707.0,0.0007713618104000001,0.00085624344393,-0.00393001945495,0.0042259472895
708.0,0.00117667158955,0.004298193525,-0.004849924130000001,0.007869009186
709.0,0.0019162028076,0.0010610203494999999,-0.0062759355,0.0071628721695
710.0,0.00287324316845,-0.0076690552615,-0.0072976981100499995,0.013177624345
711.0,0.00957252587,0.022723873305,-0.0221286409675,0.04224541741
712.0,-0.014705742415,-0.015445273592,0.02141881833,0.030456513214999998
713.0,0.0022281427845,5.305100999999967e-06,-2.4403470499999953e-05,0.0028192852245
714.0,0.0010249456725,0.00058674426245,-0.00013474958945000002,0.001236693931
715.0,0.00118197668995,-0.00101857955505,-0.0024796046154999998,0.003174837805
716.0,-0.001277468531,-0.0004254691701,0.0044170278135000005,0.0047180779874999995
717.0,0.00069390732585,0.0007363481371,-0.0014610250560000001,0.0017823059219999999
718.0,0.00099842017155,0.0003957606006,-0.0034440721317499996,0.003723704022
719.0,0.00041379794510000003,0.0005368763094500001,0.0045432892305,0.004617250652
720.0,5.305101900000012e-06,3.0769589005e-05,-0.002722578278,0.00275236008
721.0,-0.00015384795431500002,-0.0002344855028,0.0018949823839999997,0.003261111369
722.0,0.00024403468615,0.00047427610740000006,5.305101899999998e-06,0.00078832214275
723.0,-6.153917615000002e-05,0.000400004678395,-0.0027522868495,0.0028916110340000004
724.0,0.000912638796325,0.000446405225105,0.0020946324695,0.0024902378955
725.0,-0.00018673958590000001,0.00086473160425,-0.0012360887365,0.0015475995405
726.0,-5.3051018704999996e-05,-0.0005941714013999999,-0.002039281158,0.002125790388
727.0,0.00013262754680000002,0.0010355558847,0.004039304556,0.0042212056555
728.0,0.00020371591191,0.00062281896075,0.0008191077339999999,0.00225407113
729.0,0.0030780201055,0.001898165448,-0.0005432424225,0.008927892934
730.0,-0.00168702239435,0.0015575779060499999,0.0008010703715000001,0.0051857339695
731.0,0.0003236112142,0.0014026689331000002,-0.0031384982655,0.0037585437275
732.0,0.00042546917015000003,0.00015066489412,0.0021135525855,0.002172276551
733.0,0.0003121224856,0.00043462789522,0.00027696875855,0.0007392278322
734.0,0.0005167169205,6.3661220615e-05,-0.00147906240195,0.0017081885724
735.0,0.000443506516545,-0.000155969995055,0.0035576013065,0.003605765844
736.0,-9.973591519e-05,0.0006026595727,-0.00189816545,0.002030301932
737.0,0.0006366122245019999,-0.000257827951,-0.00032148917649999983,0.0031651394790000002
738.0,0.000317245091975,0.00064085630525,0.002997382558,0.00312401077
739.0,4.4562856649999985e-05,0.00092308772875,-0.0038005749925,0.0039524525085
740.0,0.0025231064715,0.0037602562051000004,-0.009684993998,0.016563154466999998
741.0,0.0024753605215,-0.0019469723795999998,-0.00167004606645,0.004000995134
742.0,-0.0016551917805999999,0.0062600202175000005,0.00427379007885,0.0079385636275
743.0,-0.0019395452401,0.0016689850428,0.004926317608,0.0063878561805
744.0,-0.0024580616465,0.0031026187895,-4.002593724999998e-05,0.0040468237105
745.0,0.001201075096,-0.0012286615949999996,0.012412877373999999,0.018935844224999998
746.0,-0.000153847948725,0.0023331838065,-0.0009750777259999999,0.004555025859
747.0,0.0013867536330500001,0.00118940383675,0.000720432834475,0.0022835361655
748.0,0.0005549136558499999,0.00088276895065,0.0014705742334999998,0.003985525536
749.0,2.3991792700000023e-05,0.00101626653395,0.0003193077155000001,0.0022511136785
750.0,0.00046723092395,-0.0037860814255,-0.008631307371,0.009537235500000001
751.0,0.0005145948788999999,0.0021528103305,0.004003229863,0.004703898653
752.0,-0.0007724228289,0.0009581013971000001,0.0039926196625,0.004240745834
753.0,8.4881629955e-05,0.00070982262865,0.001113010373,0.002291826205
754.0,0.00014535979130000004,0.00109603404695,-0.0008106195661,0.0015093823321499999
755.0,0.0007002734471,7.321040499999999e-05,-0.0023384889055,0.0027427149895
756.0,0.0005305101826,5.305102054999999e-05,0.0024074552155,0.002702872294
757.0,0.00049231345375,-0.0003490757032,-0.0011151324134999999,0.001283119845
758.0,0.000268497571905,0.00011064320445000001,-0.0011625175879999999,0.0026882415624999998
759.0,0.00015809203579999999,0.00044138447575,0.0018249550441000002,0.0019832438176999997
760.0,0.0003838262416,6.96071797e-05,-0.00076767370545,0.0010211909486000001
761.0,0.00027268223625,-0.000160214075615,0.00032679426899999984,0.0042860259605
762.0,5.941714100000001e-05,0.00010397999670000001,0.0014758793410500001,0.0022691674237000003
763.0,0.00065464957105,0.00017719040165000002,-0.0022631564575000002,0.002386418023
764.0,0.00036286896435,0.0008626095597,0.0002641940619999999,0.0025821076124999997
765.0,0.00026419407325,0.0005994765087500001,-0.00012413938399999998,0.0015044389805
766.0,0.00075756854735,0.000507167739,-0.002405333189,0.002597915004
767.0,0.0007618126298000001,0.0003649910088,0.00169869362,0.001937354107
768.0,-0.000274804277,0.00120213608265,0.00038621141634999996,0.00134119263785
769.0,0.0005623407984500001,-0.00099099302795,-0.00126685832698,0.0018582256505
770.0,-8.806469109999998e-05,7.321040489999999e-05,0.002595255834,0.0026321132035
771.0,0.000341648560585,5.941714005e-05,-0.0012626142458,0.0015863253785
772.0,0.000129444485665,-0.0001230783644,-0.0011586342487299999,0.00138304859285
773.0,-0.0005315712076,0.00039257753854999997,0.002084905035,0.002225301844
774.0,0.0014514758714499999,-0.000578256104115,-0.0013337026119,0.0024471200467000003
775.0,-0.0002259973398,0.000979321805455,0.0032732478341,0.0034617421287
776.0,-0.0002864755011,0.0006779920193,0.00011565121999999991,0.002103595248
777.0,0.00046154386289999996,-0.00047533712684999995,-0.00323292908,0.003328980528
778.0,0.00023236346198499998,-3.607469273e-05,0.0022716446180000003,0.00228390899465
779.0,-0.000879585892115,0.00511730128955,-0.0034101194698499997,0.0062419211855
780.0,-0.0003596858964999999,-0.009046259688500001,-0.00022387530549999998,0.0108233739635
781.0,-0.028019426035,0.048032392265,-0.01200650655305,0.058393446375
782.0,0.0074664004015,0.018458571439,0.014355605694999999,0.02743661771
783.0,0.0035013672390000004,-0.03720467952,-0.0052202202490000005,0.038035519239999996
784.0,0.0044679567911,-0.003650971092,-0.007113080566,0.0091855036085
785.0,-0.00125814947545,-0.00181139519725,-0.0012219092580000002,0.0043530626274999994
786.0,-8.063754844999998e-05,0.00077878895505,0.0028520227585,0.0030811637005
787.0,0.0009103554813500001,0.0007872771167499999,0.00026737713434500003,0.00132827183
788.0,-0.0005771950837,-0.00013474958755,-0.0015703101449,0.00212118289555
789.0,0.0014461707644999999,0.0007469583399,0.005068494319,0.0054301559025
790.0,0.00109285098565,0.00061433079405,0.0031745729585,0.003436533742
791.0,3.183061122e-05,0.0001061020365,-0.001138474858,0.0026845709840000002
792.0,-0.0002196312175,0.00072573793625,0.0018536025922000002,0.00200898474035
793.0,0.0007989483459,-0.00039151651830000004,-0.0025103742042999998,0.00281140741155
794.0,-0.00013483871327500002,0.0011111005345,0.0029071406411499997,0.0033468322565
795.0,9.8674894835e-05,0.0003840893765,0.0002684381558500001,0.0013447838139999998
796.0,0.0002864755011,7.639346695e-05,-0.002485970736,0.0025287911060000003
797.0,0.00011565122079500001,0.0008042534438,0.0027650190925000004,0.0029561431485
798.0,0.0002896585622,6.366122154999998e-05,5.3051018749999956e-05,0.001293532937
799.0,4.880693720000001e-05,-0.0002440346843,0.00032361120600000017,0.0046862024185
800.0,0.00020053285075,0.0007183107935000001,0.0017888803505000002,0.0025371195517
801.0,0.0005994765116,0.0004923134528,-0.0022058613585,0.0024509871385
802.0,-2.5464489000000003e-05,0.0005283881465,0.0009878099620000001,0.002493118703
803.0,5.941714100000001e-05,0.0008912571145499999,0.00085836548195,0.0013613009052999999
804.0,0.00070770058955,-9.76138745e-05,-0.0021199187074000003,0.002302172194
805.0,-8.48816295e-06,0.0011374138396,0.00327006479,0.003499094646
806.0,0.00027586529735500003,0.00018992264610000003,-0.0006811750806,0.001013588931
807.0,0.0006185748783,-0.0001580920358,-0.002169786666,0.0023042911415
808.0,3.81967335e-05,0.00061645283755,0.0034387670285000002,0.003496594833
809.0,6.747665175e-05,9.90101773e-05,-0.0006133886105,0.0012290278032
810.0,0.00050928977975,5.043666449999999e-05,-0.0003824002309999999,0.0025608936815
811.0,0.0003660520292,0.00019841081005,0.0009591624187000001,0.0015011025520500001
812.0,0.0004530556999,-2.0159388050000005e-05,-0.00128489567365,0.00141874438875
813.0,0.00013050550605,0.0002694991742,0.0013687162794999998,0.0029984062815
814.0,0.00040212672193,0.0007405922214499999,0.00153847954299,0.002179371133
815.0,0.00025676693065,-9.230877260000002e-05,-0.002459445227,0.002610848949
816.0,0.00018780060625,7.427142599999959e-06,0.0034461941745,0.003526641036
817.0,-0.0010355558827999998,0.0006960293590499999,-0.00305043356385,0.0033114964087499997
818.0,0.0004912524335,-0.00084245016065,-0.003656276193,0.005493366722
819.0,0.0017570497335,0.00174431749265,0.00300162662755,0.004561683048
820.0,-0.00065252752035,0.004291827395,-0.0016265442295000001,0.0064824516775
821.0,-0.0009994811929,0.00011777326715000001,0.0011236205745,0.0025927410639999997
822.0,0.0005167169224,-0.00041061488395,-0.001971375853,0.00212859445
823.0,0.0007045175286500001,0.00022069223790000003,0.000805314467,0.0048797255485
824.0,6.4722242865e-05,0.0019766809580000003,0.002528411552,0.003214759993
825.0,0.0002631330529,-0.0002949636641,-0.003309322544,0.0033403310524999998
826.0,0.00027586529738499996,-0.00016233611819999998,0.0055883943005,0.005634048793499999
827.0,-2.9772231710000002e-05,0.000147384218165,-0.0015843835246000001,0.00159751095795
828.0,-0.0002907195826,0.00030875692898499997,-0.0003045128474999999,0.0039968365495
829.0,-0.012926411205000002,0.002909317889999999,0.00908657845,0.028967952840000002
830.0,0.0012615532000000004,0.01967450082,0.011909953820000003,0.06216393336499999
831.0,0.015604655859500001,0.0007405585550000014,0.002212660295,0.035893987385
832.0,-0.024866073485,0.025692608199999998,0.02358011695,0.082871291455
833.0,0.0033560074350000007,0.098663223693,-0.0063915868645,0.10811665874000001
834.0,0.0094579356595,0.11295516820000001,0.140765572715,0.23136478155
835.0,-0.05424148314999999,-0.0812943186,0.46221867225,0.8947464559
836.0,0.013231853949999997,-0.9160168333500001,-0.12343028711,1.1379832354000001
837.0,-0.013195247999999993,0.18668418115000002,-0.12740637895,1.18721328
838.0,-0.8117106144,0.53455653665,0.6226462751999999,1.25085104975
839.0,0.33103562470000003,0.31994166679999997,-0.6616744976,0.8829618219
840.0,0.263938367905,0.078059269675,0.029427400329,0.31957737746000003
841.0,-0.047771381414999994,-0.0300226324995,0.04968864527,0.07570788957499999
842.0,-0.017345561225,0.006417051285,0.028345159439999996,0.057563747455
843.0,0.004786263110000001,0.0026196593399999985,-0.005131094574999998,0.07858270353999999
844.0,0.0128747862175,-0.005091964002999999,-0.0124838343505,0.02359312689
845.0,0.004970880285,-0.0027353104105,-0.005221280705000001,0.063383556345
846.0,-0.0004880691449999988,-0.002789422435000001,0.000507167900000001,0.089813385125
847.0,-0.00736772569,0.0016477646749999998,0.011445227139999998,0.05636944874
848.0,-0.012054252395,0.0092542195,0.024944588601000003,0.03424515658
849.0,-0.0044966043500000025,0.0072170607599999995,0.009314698089999997,0.100438787
850.0,0.0185561855265,-0.008738563299999998,-0.018072359180000004,0.052870538994999994
851.0,0.007775157435000001,-0.0062462270025,-0.00866110947,0.03589688649
852.0,-0.007211755475,0.004875388533,0.01212321856395,0.0214077561915
853.0,-0.005758157550000002,0.00720963377,0.006427661015000002,0.056560131495
854.0,0.008316277684999998,-0.0026058661550000008,-0.005843039354999999,0.046887003494999996
855.0,0.012047491403,-0.0072865703075,-0.017798714313499997,0.030585521284
856.0,0.0002769265,0.00013793276000000076,0.0013464348249999994,0.076309469515
857.0,-0.01093169321,0.00599264308,0.0162420996725,0.032290034975
858.0,-0.008337498295,0.0090420155215,0.013003865790000001,0.05561719303
859.0,0.0027257612199999975,0.00127004111,-0.003098179585000003,0.08204150275
860.0,0.01222295445,-0.0041358575650000005,-0.01099959855,0.037949008095
861.0,0.009258463715,-0.0056679708035,-0.01385268215,0.03384421366
862.0,0.003798452935000002,-0.0011703053849999989,-0.005253111565000003,0.07528334636
863.0,-0.004853939039999998,0.002794821079999999,0.01233976454,0.06832590049
864.0,-0.009478094884150001,0.0018313210609999997,0.0114102132,0.03139981694
865.0,0.0030928742200000007,0.0067024656864000005,-0.0049793685350000005,0.029441144175
866.0,0.0093953354105,-0.0043523055625000005,-0.014046848875,0.01967558446
867.0,-0.02937753182,0.01416037794,0.05153376003,0.06098593364
868.0,-0.00136447206,0.004344878355,-0.001345373814999995,0.086827854245
869.0,0.003261576670000002,0.0018769450949999988,1.909836499999762e-05,0.09014453778
870.0,0.003942751459999998,0.0010313116449999996,-0.0024679333549999967,0.082126750885
871.0,0.0074165324165,-2.3342400000000985e-05,-0.00801282587,0.034110944559999995
872.0,0.0083565962255,-0.0032106475345000003,-0.009069602003,0.0165002401
873.0,0.00520112189,-0.0005496084709999999,-0.0053072241499999995,0.041719944245
874.0,0.00526986309,-0.004461327709999999,-0.003851996289999996,0.07925572887
875.0,-0.0013143666149999997,0.0012653475650000016,0.004645036849999999,0.096357191955
876.0,-0.0099364556,0.0074982311200000006,0.0164118632,0.047764383215
877.0,-0.0038843951345000002,0.0051268503542000006,0.0070048563900000005,0.017748074075000002
878.0,0.002909317790000001,0.0010461661449999993,-0.014030933835000002,0.06308530884
879.0,0.004286623655,-0.00252893771,0.002795254139999998,0.054064679335000004
880.0,0.012045484205,-0.0039796496645,-0.008264117800500001,0.018158329275
881.0,0.006569838034999999,-0.001550150702,-0.005296614130000002,0.04087340724
882.0,-0.0009358200850000005,0.0040393047235,0.004787324574999998,0.05479182798
883.0,-0.0013570450199999994,0.00303345745355,0.0037645002100000005,0.037462685095
884.0,-0.002459445195,0.00388015158765,0.0081847114105,0.023988422385
885.0,-0.007638285475000001,0.007264806582999999,0.009642553269999998,0.03641009008
886.0,-0.0006854194050000019,0.0003724182449999988,0.0012636758049999995,0.072841700585
887.0,-0.001873762339999998,0.0031204610700000003,0.0053390545349999985,0.078313827695
888.0,0.001580920399999998,0.0005008017950000002,-6.047811000000486e-05,0.083177973095
889.0,0.0011242938949999996,0.0008280295650000009,0.0006383421800000011,0.08313040165499999
890.0,-0.0006737479100000013,0.002450956955,0.002931599324999999,0.091416617535
891.0,0.0031151559950000005,-0.0014514760500000008,-0.004106148670000004,0.08721912098500001
892.0,-0.0026345137100000013,0.004675917030000001,0.0060361451649999995,0.08871132064000001
893.0,0.0026748324899999974,-0.0008912570650000014,-0.0007978871999999998,0.099529994035
894.0,0.008369328919999999,0.0021835800049999996,-0.019716941750000005,0.07851324322
895.0,0.010476515201999999,-0.0022419360346500002,-0.020559391939,0.0253206267875
896.0,0.008407525434999999,-0.0123545215,-0.011522681175,0.037828765539999996
897.0,0.002070050760000001,0.00410614906,0.0029729786749999945,0.08544689952000001
898.0,0.000289658374999998,-0.00010822409000000102,0.005006954915,0.10678410575
899.0,0.004772469335000001,-0.003150169510000002,0.0003756015999999973,0.15624626895
900.0,-0.0006111480850000059,0.005021809540000002,0.004127368749999999,0.13859679949999998
901.0,-0.006452065245000003,0.003924714310000001,0.012268578714999999,0.09457250115
902.0,-0.0037666222100000007,0.0029008298449999994,0.008306728615000002,0.06747180115
903.0,-0.0083633840045,0.006019172652999999,0.015033442134999998,0.01975845492
904.0,0.0012785299950000013,0.0015851641949999997,-9.337030499999982e-05,0.05464494466
905.0,0.0075084326465,-0.0028113121429999997,-0.006926745000000001,0.025838953004999998
906.0,0.0050589453448,-0.0012509429399999994,-0.006076463426650001,0.018955149645000002
907.0,0.0022620956465,0.0009793220249999998,-0.0008180465900000005,0.02580846582
908.0,-0.0009740170320000001,-0.00020371589500000047,0.0038249787515,0.017590482305
909.0,-0.007313613508399999,0.00732952875835,0.010163514404,0.01831274837
910.0,0.0023862348199999994,-6.57829254999999e-05,0.003489695794999999,0.036990192935
911.0,0.005889109125,0.0003078729150000001,-0.0037277434850000006,0.05057158514
912.0,0.0107163058895,-0.001449353772,-0.0143640937615,0.023971606386499998
913.0,0.00619954193,-0.008504078215,-0.011497217009999998,0.095658334465
914.0,-0.0007289210050000008,0.0014684520650000005,0.004140101845000001,0.09820754697
915.0,0.002779873420000002,0.0007840941699999993,-0.0008742807800000002,0.09653741746
916.0,0.024926551444999997,0.019595985426,-0.010997476150000001,0.08241320137
917.0,-0.3215825429,-0.133028612425,0.39912403405,0.53051733335
918.0,-0.0326709395205,-0.005215976084999999,0.07283056066900001,0.09566430517499999
919.0,0.022329173861499997,-0.022427848985,-0.043760724198000006,0.054509935225
920.0,0.00197137608,0.0068987543499999995,-0.0024700554249999992,0.0600979027
921.0,-0.009018673205,0.019378475916,0.013344453445,0.047981150325
922.0,0.017455906665,-0.005784683290000002,-0.02169362249,0.081813193135
923.0,0.005721022154999998,-0.0006217579199999986,-0.007555526215,0.06962531928
924.0,0.01141730034,-0.013404774254499999,-0.010025191164999999,0.049235040025
925.0,0.013556657605000005,0.014733328255,-0.021570544490000003,0.13711196145000001
926.0,0.13830273445,0.0821547256,-0.1877969078,0.24980131195
927.0,0.11067609646,0.061634674109999996,-0.139815959725,0.19178612174999998
928.0,-0.03205873026,0.004708808685000003,0.045690720049999994,0.110021222345
929.0,-0.008009642599999998,0.005208549085,0.01110676202,0.14080815395000001
930.0,0.014214489925,-0.014872322900000002,-0.015744481330000004,0.126451924
931.0,0.017263862714999998,-0.0099216015545,-0.01666438572,0.026388138999999998
932.0,0.016000965855,-0.005101545935,-0.01648418509,0.11018051674
933.0,-0.0007874714500000005,0.005164963195,0.023407300904999997,0.12543380345
934.0,-0.063127529595,-0.024937161845,0.061148726305,0.15015817528
935.0,0.011000658884999997,0.0088637643,-0.002899768909999996,0.10545267566
936.0,-0.0004891304650000003,0.01849995187,0.002406394065000001,0.026522021110000002
937.0,-0.007996309030000003,0.011175289439999998,0.010254770389999997,0.07740902813
938.0,0.008300362040000002,-0.005631896179999998,-0.0035777601250000027,0.12769162005
939.0,0.04819154531,-0.014659057489999999,-0.061463849395000006,0.079501135475
940.0,-0.0125465659585,0.014407595670999999,0.009171460098350001,0.0216999268435
941.0,0.00097258644465,0.00039627837854999996,-0.0006018744176,0.0016694516864999998
942.0,-0.0009841261057,0.0018225613763499999,0.00088699181245,0.002742749864
943.0,-0.000312562392385,0.00119601165135,0.00075246485895,0.0014570068569999999
944.0,0.00065592532175,-0.0003188576745,-0.00120110032615,0.0014996044358
945.0,-0.00043096795034999996,0.00068772645925,0.0020999066825,0.0022570080125
946.0,0.00027106544330000003,0.00061380028665,6.144234255000002e-05,0.0008928969028
947.0,0.0009092944610999999,-0.00048276427054999994,-0.0018260160644,0.0022120783398500003
948.0,-0.00048488631112,0.00139311975,0.003266881724,0.0036248399109999998
949.0,0.0005315712076,-0.00032361121515,0.00060053753015,0.0013195618164
950.0,-9.124775315e-05,-0.00032361121885,-0.0008732197653,0.0012636337550000001
951.0,-2.440346849999996e-05,0.00070027344795,0.0007161887495,0.0032750954780000003
952.0,0.034233822318,0.0151025639565,0.008342803279,0.045982881105000005
953.0,-0.036999902505,0.017076061769999998,0.01709622153,0.09402341641
954.0,0.0102775486195,0.008604210051999999,-0.02820648982,0.03142655744
955.0,0.09386696095,0.02559168521,-0.08166084369,0.14201025949999999
956.0,-0.019794396109000002,-0.0059332259250999995,-0.0064913226455,0.023866552876
957.0,-0.0033920821379999997,0.00357245559165,0.001342190774,0.0074922634745
958.0,-0.00036605203095,-0.0002939026445,0.00107056955595,0.0021148411564999997
959.0,0.0012986889365,-0.0016159340265,-0.0015894085211299999,0.0029421352025
960.0,0.00045755240345,-8.211119065e-05,0.002807981991,0.002885088525
961.0,0.0003575638662,-0.00010079693651,-0.0017697819850000002,0.0018149262394999998
962.0,0.0021878239983,0.0012233564869999999,-0.002137956051,0.004518088174
963.0,0.007438813831,-0.0016498867020000004,0.00020159389240000005,0.013882893415
964.0,0.00027374325845,-0.0009358199600000001,0.0011957699575,0.0032172076885
965.0,-0.0038985130485,-0.0025991167765,0.004807546478499999,0.01294034631
966.0,-0.006693977546,0.008973049302,0.003917287217,0.012207116059999999
967.0,-0.0025366513464999997,-8.49657450000007e-06,-9.053200299999993e-05,0.004700416701
968.0,0.001200014043,0.002285437884,0.00027162121405000005,0.0027366658425
969.0,0.00024376522060000003,-0.00033657923915,0.00088202792145,0.0010713219392
970.0,0.0005077529843499999,0.0004920313580000001,0.0003183187435000001,0.0019739244794999998
971.0,9.6552854055e-05,7.427142625000001e-06,0.0006291850822,0.0006828799655
972.0,0.00108330180235,-0.00059204936895,-0.00065995467295,0.001663702955
973.0,-8.594265030000003e-05,0.00092627078575,0.00188543320105,0.0022861855495
974.0,0.00031936713269999995,0.00063767324945,0.00038939447754999997,0.001562384923
975.0,0.0005899273282,-0.000592049369,-0.0015427236245,0.0018645777055
976.0,-0.00037575278691,0.00067904040855,0.0012780495658,0.0017881239635
977.0,-0.0001167122412,0.0005252050844000001,0.0004933744742,0.0010356988229000001
978.0,0.00049830064015,-3.0895902815e-05,-0.00081971823695,0.0009671009231
979.0,0.00029178060275000003,0.00048806937205,0.00100478629455,0.002051663681
980.0,-0.0002440346861,0.00113741384345,0.0012127462881,0.0016886813396
981.0,0.00036817406995,-0.0005103508001,-0.00043183529240000003,0.00080973748205
982.0,0.00016697597624999998,-0.00034769048125,-0.00088877718985,0.00097091555345
983.0,-0.0005727404823,0.0010816176412,0.002006797936,0.0023699397515
984.0,0.0001533511273,0.0004904608783999999,0.0009179720908000001,0.0014736927692
985.0,0.0009230877256,-3.819673344999999e-05,-0.00068011406005,0.00164646759005
986.0,-0.00042971325164999996,0.001458903013,0.0023586482919999998,0.002844049403
987.0,0.0003774622086,-0.00010304107788999998,-0.0011663519089,0.00126128467475
988.0,0.00033846549945,-8.912571065000001e-05,0.0003734791720000001,0.0025534565564999997
989.0,-0.0003167566858,0.00124151593605,0.00130806970575,0.0023844184585000002
990.0,0.0009994811927,-0.0010207016003,-0.00091672160345,0.0017842103925
991.0,0.00022705836010000004,0.0009782607832,0.0007724228340000001,0.0026886765445
992.0,0.00045070208725,0.0006552979733000001,0.00047297509420000006,0.00120115780095
993.0,0.00080425344385,-0.00019947183129999998,-0.00127428546995,0.0016549697305
994.0,-0.00044562855725,0.00047958120925,0.001409035057,0.001584255425
995.0,-2.1220407499999974e-06,0.00013793264775,0.00026949917512,0.00043401619425
996.0,0.0005103508001999999,0.00038727243665000004,-5.5173065999999894e-05,0.002671715985
997.0,-0.00042759121110000006,0.0008201687494,0.001649886679735,0.00247795596805
998.0,0.0009188436443,-0.00039469957839999997,-0.00099205405035,0.0014864741220000002
999.0,0.00041273692575,0.00038302835515,0.0004148589665000001,0.0024571806925
1000.0,-0.00025676693060500003,0.00072573793595,0.0016445815804500001,0.00181908272485
1001.0,0.0007257168843,-0.0008643400381999999,-0.0014331353774850002,0.002084897031
1002.0,-7.771974245e-05,0.000677899389475,0.00224536331745,0.0023730427911999997
1003.0,0.00030875692898,0.00033528244475,-0.0007246769159,0.0011621214067999998
1004.0,0.0009039893589,-0.0002843534623,-0.0010185795597,0.0016781393821
1005.0,0.00393532455,-0.0036541541475,0.0033676786385,0.0063770502775
1006.0,-0.01740922232,-0.0324640403765,0.048649906130000004,0.075529610335
1007.0,-0.0058292459195,0.0076648111945,-0.00407537925,0.011156906692
1008.0,0.00017978401234999993,0.00097767133245,0.0009434492119,0.0017588492475
1009.0,0.0015798593339999998,-0.001059959355,-0.00059735447195,0.0029924453890000004
1010.0,0.0029390264291000003,-0.0011968309766450002,-0.00203397606055,0.0043493287115
1011.0,8.912571145499999e-05,-0.00015278693484999998,0.00172309708885,0.0018687292486
1012.0,0.0008350230347,-3.183060200000014e-06,-3.607469275000003e-05,0.0012484909435
1013.0,0.000299207745585,-0.0009061114,-0.002286498907,0.0024876053550000003
1014.0,-0.000637673245115,0.000948552215002,0.0020795999340000003,0.0025174685635
1015.0,0.0005485475336,0.00018886162665,0.00017931244329999997,0.0010926617715000001
1016.0,0.00091672160265,-0.0006748089582000001,-0.0015798593376000001,0.00194955347325
1017.0,-0.0006970903862,0.0014843674984999999,0.00260798808055,0.0032075603500000003
1018.0,0.00013581060794999998,0.00025146182875,-9.1247752195e-05,0.0006070477963
1019.0,0.00110279062465,-0.00027439684495,-0.0008380320961500001,0.002031959817
1020.0,-0.00063873426535,0.0011310477181,0.0025178013484999998,0.0028682251405
1021.0,0.0012689803680000001,-7.214938454499999e-05,-0.001266858327,0.001806884734
1022.0,0.000225862607035,0.00026146152475,-0.0011251700032499999,0.00145725172645
1023.0,-0.00104298302815,0.0008774638487,0.0026090491009999996,0.0029597823875
1024.0,0.0008212297698500001,0.00020159387025,-0.00025782795101499996,0.001206775067
1025.0,0.0008509383391499999,-0.0004689710055,-0.0019353011630000002,0.00217609536
1026.0,-0.0003437706013,0.0011925869001999999,0.0028117039915,0.003082611651
1027.0,0.00032361121422999997,-9.761387609999998e-05,-0.00017400734140000002,0.001082422751
1028.0,0.00023342448235,-5.0928977049999986e-05,-0.0003225501950000001,0.002983319434
1029.0,-0.0005185905495500001,0.0008318610244999999,0.0008925286546999999,0.0022193055952
1030.0,0.0006811750802,3.183061100000032e-06,-0.00108648486345,0.00155309608595
1031.0,0.00037666223294999994,0.0001262614255,0.0005145948815000001,0.003476779195
1032.0,-0.00025040080839999995,0.0008573044607,0.0016689850489,0.0025916993549499998
1033.0,0.0008562434423,-0.00072255487495,-0.0020138166705,0.0023287770099999997
1034.0,3.183061125000005e-05,0.00018143448218000001,0.0011289256785,0.0018498978365
1035.0,-0.0005315712076,0.00051989998165,0.00113953588225,0.00136520524285
1036.0,0.0010376779264,-0.0006886022230500001,-0.00249127583765,0.002890311355
1037.0,0.000737409148,-0.001506648954,0.0015437846604999998,0.0057991314189999995
1038.0,0.010266433129500001,0.0011289256665,0.0080117648495,0.023178636235
1039.0,-0.099676497935,-0.03310489671,0.110759916905,0.154029804885
1040.0,0.061393821872500004,0.03595585839,-0.09024933199,0.11969821826
1041.0,0.04298617939275,0.03139240983,-0.060302031962,0.08296800436
1042.0,0.13061299593,0.07054918855,-0.145847080145,0.2093347789
1043.0,-0.004653635430000001,0.013643661095,0.0034377060380000003,0.061925343630000004
1044.0,-0.04794430235,-0.0066669342450000006,0.037711350775,0.065832843215
1045.0,-0.0031838546700000032,0.004510936745000001,0.0014408354900000003,0.06787256025499999
1046.0,0.01822726894,-0.0113932368165,-0.019010302375,0.02901038616
1047.0,0.0026239031999999995,-0.0057008626,-0.004029755165000003,0.07299076029
1048.0,0.003840893655,-0.0002206923149999998,-0.003971399650000002,0.08667776603999999
1049.0,-0.00729557581,0.007412288475000001,0.010434074639999999,0.07846581125
1050.0,-0.0005455681349999996,0.002031471975,0.0046131423849999995,0.02438573682
1051.0,-0.005035602624,0.0043268413495,0.007855794564149999,0.017423961403
1052.0,-0.0026822593807500003,0.00022175325250000006,0.0061273926665,0.0073585222465
1053.0,-0.0019119584099999993,0.0024732385895,0.006477529354999999,0.040708720085
1054.0,0.0031724510000000015,-0.0004498727200000002,-0.003297651389999998,0.042609466845
1055.0,0.004754432310000001,-0.0016902053630000002,-0.004232409655,0.027632386385
1056.0,0.005433485115,-0.0011734885790000002,-0.005201121993,0.013298317043
1057.0,0.001220173465,-0.0007140669500000016,-0.0009665896099999988,0.038966068019999994
1058.0,0.0024771625449999998,0.0001876869100000001,-0.0002856922950000007,0.049557523310000004
1059.0,0.0017262798199999992,-0.0010451052349999997,-0.0024700550399999986,0.06481247991
1060.0,-0.0006260020999999984,0.0015480289599999995,-0.0009856879450000008,0.089216981335
1061.0,0.0019183245549999998,-0.0018949824700000006,0.002081721604999996,0.1029764976
1062.0,-0.001593652719999998,0.0025634252850000004,0.002236631480000001,0.097885948585
1063.0,-0.002943632764999999,0.0033059835799999996,0.007472665364999999,0.066774557785
1064.0,-0.0025245506399999996,0.002157340740000001,0.006091886445,0.037378684135
1065.0,-0.004196234725000001,0.0043784016700000004,0.006707560189999999,0.0296383887
1066.0,-0.0089783544145,0.00683191013,0.01172639725,0.017189027415
1067.0,-0.005954446349999998,0.008669597491,0.012822431,0.05421755936
1068.0,-0.027794489870000005,-0.02964384821,0.050497143078000004,0.11626508624500001
1069.0,0.02207346807,-0.0034536213550000004,-0.028485213875,0.041189456525
1070.0,0.008018244465000001,-0.006630333138999999,-0.0156349056,0.041465778095
1071.0,-0.0006334294799999994,0.004422332969999998,-0.0031098502500000007,0.07591615839999999
1072.0,-0.0005379372150000027,0.0032477834600000005,0.006044632564999999,0.070164636465
1073.0,-0.00718735197,0.006545434750000001,0.01120968016,0.035208872755
1074.0,-2.0159585000000327e-05,0.002000023575,0.0008371450699999998,0.029503213049999998
1075.0,0.0036650167549999984,0.0011857407900000005,-0.0039492988699999995,0.04134055757
1076.0,0.0047385167650000025,-0.0025135570799999993,-0.004979368839999998,0.06890916433
1077.0,0.004839313865,-0.0007140668900000001,-0.006318376269999995,0.10008176869
1078.0,-0.002970848635000002,0.005031682655000001,0.009595425720000002,0.11286296005
1079.0,0.0038939447949999997,-0.0037400968750000013,-0.0043406337899999994,0.11799365954999999
1080.0,-0.00028850894000000127,0.0032444065700000004,0.0058061138250000005,0.1135217583
1081.0,-0.002704561920000001,0.00331724649,0.005891206034999999,0.08268389585
1082.0,-0.00685100883,0.00491889058355,0.011238328399999999,0.03681833794
1083.0,-0.002303475498,0.002629208555465,0.0068510084805000005,0.0128236591125
1084.0,-0.0011213554905,0.0038474242170000003,0.0053034978755000005,0.011102434505
1085.0,0.006157101578,-0.004498726433,-0.004663184724999999,0.02557103716
1086.0,0.002447525409999999,0.0012024643365,-0.0031003689249999994,0.030684898244999998
1087.0,0.0022679141737,0.0017162593949,-0.0008760954500000001,0.004869272035
1088.0,-0.0014964429425,0.0001859985549999999,0.006327121347,0.007563358195
1089.0,-0.009121137530000002,0.005721148087499999,0.006038481569999999,0.04717201869
1090.0,0.00160532382275,-0.0019268129925000001,-0.0007512024564499999,0.0029645570935
1091.0,-0.0004519946954999999,0.0008742808365000002,0.0035236486969999997,0.011501877915
1092.0,0.0095629766265,-0.030952086424999997,0.017982173275,0.037213314304999995
1093.0,-0.012059818577,0.02951856362,-0.0035396397435,0.032880581295
1094.0,-0.0041673848705,0.0039819168255,0.003688725752,0.0070321298995
1095.0,-0.0007797278718,-0.02237241873,0.0042551927315,0.022981758589999998
1096.0,-0.0078791373342,0.0083332541035,0.019071841215,0.035271646845000004
1097.0,-0.0035395429160000004,0.014764894309999999,0.0019370231955000003,0.018024470095
1098.0,-0.003520465599,0.0051862675965,0.002928416225,0.006953281251999999
1099.0,-0.002951670257,0.0037812660790000003,0.003227497666,0.00578625107
1100.0,-0.0017018766745,0.0018238940161500001,0.00099523710563,0.0030449218690000003
1101.0,-0.0002613310024,-0.00015808782540000004,0.0040188883285,0.0041038116025
1102.0,0.0020074505614999997,-0.029322359054999997,-0.014393802362,0.03894340156
1103.0,0.06198412407,0.037871635800000004,-0.037587042375000004,0.13489838745
1104.0,-0.021575849299,-0.0008764024200000001,-0.00034695373500000064,0.029610631900000003
1105.0,-0.0056223469615,0.005044090885,-0.022958358882500002,0.024279716365
1106.0,-0.006497688785,0.012046825310500001,0.009323186010499999,0.0169548301765
1107.0,-0.00232787869799,0.004785201865,0.004727906772,0.0073758284304999994
1108.0,-0.00012413938474999998,0.002706662971,0.0008519993605000001,0.0028769411949999997
1109.0,0.0010177037947,-0.00104460823925,-0.00033989703765,0.0016063825025000001
1110.0,0.0010026642539,-0.0004095538644,7.8515507695e-05,0.0015378503379999998
1111.0,0.000218540724335,0.0005233398789,-0.00030322025521000004,0.00076738851095
1112.0,0.00024297366590000002,-0.00025570591115,0.0004244081480000001,0.0028772859750000003
1113.0,-0.00072467691195,0.000632368145,0.0032626376419999997,0.0034431863985000003
1114.0,0.000386211416295,0.0001878006063,-0.00015490897460000003,0.00126775124335
1115.0,0.00083502303485,-0.00022705836005,0.00040106569999999995,0.0033917171465
1116.0,7.321040585000002e-05,-0.00036074692825,0.00113953588205,0.00153223344765
1117.0,0.0006440393670999999,-0.00041061488495,-0.0007458973230500001,0.00128070603545
1118.0,0.0010907289450000001,0.0002259973379,0.0011427189434,0.001607861656
1119.0,-0.000759711639,0.0006883538103000001,0.0010165585672499999,0.0014582176102500002
1120.0,0.0004121601011245,-0.00035344609665,-0.0014294344373,0.00176959580625
1121.0,-0.00019098366740000002,0.00045093366025000006,0.00140266893505,0.0018165126011999999
1122.0,-0.0001556079008,0.00048650310315000004,0.000527137658175,0.00076606885835
1123.0,0.0003756012126,-0.0003989436608,-0.0005570356963999999,0.0009486251081500001
1124.0,-0.00030451284750000003,0.0001326275468,0.00040743182380999996,0.00068014288495
1125.0,0.00016764121915,0.00036392998845,0.000151725913555,0.0004552316327
1126.0,0.00037273393135000004,8.293642595000002e-05,-0.00066375245224,0.0009397047213499999
1127.0,-0.00013072444680000002,0.00014812602300000001,0.0015728700765,0.0017078277064999999
1128.0,0.00053225329215,0.00048755149325,-0.00033699186005,0.0009244005203999999
1129.0,0.00058886630785,0.00058674426705,-0.0011840987381499999,0.0014712464736500001
1130.0,-0.0003819673348,0.0008297179331,0.0023819907405000004,0.002574786202
1131.0,6.366122245e-05,0.00040530978306,4.244081499999981e-06,0.0010657920875000002
1132.0,0.0005549136558499999,6.472224285e-05,-0.00010397999672,0.00066480751395
1133.0,0.0001145902004,0.0003639299875,0.0003586248864999999,0.001912843222
1134.0,-0.0001708242803,0.0001591530562,0.0008063754846000001,0.0012420583931499998
1135.0,0.00055545258685,0.000285587106,-0.0003821736443,0.0011488629548500001
1136.0,0.0005071677389499999,0.0007480193649,-0.0005782561069999999,0.002153088131
1137.0,-0.00017612938125000002,2.4403467700000002e-05,0.0017252191306,0.0019047489175
1138.0,-6.991366299999996e-05,-0.00061629284152,-0.00115443648155,0.001828034303
1139.0,0.0012466989242,-0.00337722786845,-0.0014748183165,0.0049932257595
1140.0,-0.003307200545,-0.011253182091,0.0112128632955,0.019083392685
1141.0,-0.012789539622,-0.012987950421,0.0247567884145,0.037884040004
1142.0,0.00098780996675,0.0030769590990000002,0.00148542851055,0.006271408722000001
1143.0,-0.0009449228535,-0.005820361990499999,0.00392351017455,0.0087081248395
1144.0,-0.0004182441267,-0.003301301734,0.0012543534443849999,0.0038340893705
1145.0,5.72951002e-05,-0.0013931197479499998,0.0013209703625000002,0.0043533157225
1146.0,-0.00041027805304999997,0.00103833895975,0.0016326029942500002,0.0028083384505000002
1147.0,0.00084351119785,9.655285499999999e-05,-0.0021941901344,0.0023984512744999998
1148.0,0.00034270958005,0.00030875693175,0.001152268124,0.0025168402295
1149.0,0.000531731202755,0.00037263709214999997,0.0017835205142,0.0021327738255
1150.0,0.0015819813765000001,-0.00036392998565,-0.0023374278835,0.0028620788114999997
1151.0,-0.0008074365050999999,0.00112680363755,0.003138498266,0.0034332804219999995
1152.0,0.00083608405525,0.0001824955044,-0.0015119540338000002,0.0017495405755
1153.0,0.0011444073130000001,0.00022401844980499998,-0.0018037935824999998,0.002175920622
1154.0,-0.0013712425225,0.0018774460770000002,0.0033308671535,0.004063866358
1155.0,9.124775220000002e-05,0.00085412139955,-0.00040212672195,0.0010604956168500002
1156.0,0.00110664425065,-0.00019416672855000002,-0.0009729556824999999,0.002699562546
1157.0,-8.488162996e-06,0.0004965575353,0.002826558272,0.002869855937
1158.0,0.00016445815804999998,0.0008880740541999999,0.0004838252906,0.0013097004898
1159.0,0.0017220360684999999,-4.774591779999998e-05,-0.00157031015445,0.002573194043
1160.0,-0.0012955058780000001,0.00065146650995,0.0026408797095,0.003030950994
1161.0,0.0005676459003499999,0.0001135291800735,-0.00044775059805,0.0008436269954500001
1162.0,0.0016976325995000001,-0.000355441825455,-0.002795788685,0.0033823870910000002
1163.0,-0.000989932010315,0.00141858424045,0.004479628009,0.004843606889000001
1164.0,0.00047745916849499997,7.639346697e-05,-0.0009782607861,0.00185790732415
1165.0,0.00103979996675,-0.00034270958002000003,-0.002697113791,0.0029285647055000003
1166.0,-0.0008780027806500001,0.00104206094985,0.0026317936680000003,0.0029884532455
1167.0,0.00010185795610000002,0.0006100867163500001,0.00021538713600000004,0.002033940281
1168.0,0.0011393085205,-0.00022965196549999998,-0.0024620935685,0.0027886965715000003
1169.0,-0.0005806812935,0.0005828875422499999,0.00264605849075,0.002773205197
1170.0,0.0004541167203,0.0001835565248,-0.0009602234389,0.0012696650726499998
1171.0,0.0004891303910000001,0.0004891303917999999,-0.0009283928270000003,0.0035296193919999996
1172.0,-0.00094112507225,0.00082653487075,0.0029963215349999997,0.00325332969
1173.0,0.0011840987378,-0.0006822361008,-0.001984108098,0.0024294506595
1174.0,-4.401550395000001e-05,0.00021910912815,0.00172286130475,0.002877498912
1175.0,0.00020902101378000003,0.0006260020207,0.0008413891568,0.0012744622052499998
1176.0,0.001649027762,-0.00042185664747499996,-0.00220602977365,0.002861882236
1177.0,-0.0007660272376000001,0.0006432309708,0.0029919006155,0.003163233204
1178.0,0.00021538713604999998,0.00057507304295,-1.697632599999998e-05,0.0010643042845500002
1179.0,0.0011006654852,-0.000328625798605,-0.002024612131,0.0023688343625
1180.0,-0.0002620720325,0.00075650752625,0.002605866038,0.0027277321195000002
1181.0,0.00042662702969999995,0.0008819268719499999,0.00038128946055,0.0015357452965
1182.0,0.0007925822197500001,-4.986795945000007e-05,-0.00032361120850000016,0.003264963626
1183.0,-0.00056658487995,0.000114590200465,0.00209021013495,0.00217961978505
1184.0,0.00053475426875,0.00017082428029500002,-0.0010907289445,0.0012396979395
1185.0,0.0005389730881,0.0002029075145,0.00034452005049999987,0.002899634975
1186.0,-0.00026832026361499995,0.00057559092105,0.0020513607925,0.0022291417694999998
1187.0,0.0009740167038,-0.00043714039335,-0.0013464348554,0.0017681724039999998
1188.0,-0.00012572670395,0.00055519996295,0.000265671923,0.0023747002324999997
1189.0,-1.6130035900000003e-05,0.0007316030210000001,0.0011760737186,0.0014095116045
1190.0,0.0014045004585,-0.0005812454869,-0.0018145427282,0.0025093200835
1191.0,-0.00100054221236,0.0012445768972000001,0.0031873051945,0.003598083198
1192.0,0.00049337447315,-0.0013252144451,0.0003533197838,0.0021426238174999997
1193.0,0.012133829007999999,0.0037995137949999973,0.014438365350000001,0.05433087375
1194.0,0.0099884457035,-0.01560654865,-0.0025761573194999993,0.026382663755
1195.0,-0.04738036162,0.050128214845,0.028201534209999997,0.085207986025
1196.0,-0.0491392261,-0.015819380140000002,0.059262168734999995,0.081307392125
1197.0,0.005466153812999999,0.07581640232999999,0.04089444521,0.100938316385
1198.0,-0.185692358525,0.003975643749999994,0.0937432723345,0.270326906
1199.0,0.037401263095,0.06557308492,-0.13275793845,0.15910782125
1200.0,-0.14856937768,0.020503157885,0.0578319759,0.41350150415000003
1201.0,-0.0011225594699999994,-0.03000353404,-0.07641787025,0.09808558992
1202.0,-0.09313530712,0.05097035784999998,-0.12427519476500001,0.34584437830000003
1203.0,-0.024704015750000002,-0.39557825525150003,0.38369518158,0.6247117435
1204.0,0.0879936030455,-0.254362657915,0.14246744962,0.3161291597
1205.0,0.54148962675,-0.6313049996,-0.063079784165,0.89986463915
1206.0,0.014031995399999997,0.14414492337999998,-0.239770445675,0.49715989055
1207.0,0.15676681995500003,-0.048959724195,0.15321134185000002,0.31622791159999997
1208.0,0.17826454939999997,-0.02408988981,-0.050623497735,0.3750050802
1209.0,-0.15251212965,0.16427778432499998,-0.085347418045,0.30062516065
1210.0,-0.07286345028499999,-0.09205200557,0.10237255149999996,0.7121832378999999
1211.0,0.04506684056,-0.003789964371,-0.06896526397000001,0.140193761845
1212.0,-0.13153491668,0.028825330595,-0.08873550653000001,0.17626663775
1213.0,-0.26300701665000004,0.05742562795,0.369097956355,0.5487004465
1214.0,-0.50057773895,-0.31604083349999995,0.33529835494999993,1.886754974
1215.0,-0.23826061369999998,0.7961207225,0.10579540440000001,1.3681965685000002
1216.0,0.7008082012,0.33199751968350005,-0.3760956466,0.9053451615
1217.0,0.01195353615,-0.093251841245,-0.028688055474999998,0.11721157270999999
1218.0,0.005849367211,0.0028559738950000024,-0.0022434469100000003,0.047469459635
1219.0,0.010604707628,-0.015405854531000001,-0.007885087443999999,0.022075962015
1220.0,0.0111479926,-0.002441586117,-0.01894359785,0.02611484235
1221.0,-0.00081918836495,0.0095064199855,0.0006679207954999999,0.011402672553
1222.0,0.0011108034475999999,-0.0011569153959999998,-0.0023761933249999995,0.005143169598
1223.0,-0.0007970342614,0.0001725049366,0.0038887330295,0.0040128293405
1224.0,0.00058105685515,0.0008820386845,-0.00026650082415,0.00120085773345
1225.0,0.0016074458674999999,-0.001381448523,-0.0022674005414,0.0034209834245
1226.0,-0.00112269007875,0.0016889886505,0.0043472067745,0.004797967331
1227.0,0.0008757586383500001,0.0003365834514,-0.0012925207046,0.0016377790162
1228.0,0.0008991431904999999,-7.189255116999999e-05,-0.0020592468567000003,0.00229293233665
1229.0,-0.0001400546894,-4.137979360000003e-05,0.00287430418783,0.0035478590115
1230.0,-8.06375485e-05,0.00030663488805000004,-0.0005400593713500001,0.0017501650990000002
1231.0,0.00080743650505,6.684428455e-05,-0.0022822548245,0.0025195160365
1232.0,-0.00013687162829999997,9.124775222e-05,0.00219843420865,0.00299160022245
1233.0,-0.00011941952728500001,0.0006129497843,0.000995514996,0.002372090245
1234.0,0.000921588824,-3.7889376250000004e-05,-0.0026069733725,0.0028447366664999998
1235.0,8.713419304e-05,0.0005212852045000001,0.002143551672,0.0022332282695
1236.0,0.00041379794605,0.00030239080765,0.000544303452135,0.00099301994365
1237.0,0.0008335199225,-0.0005435540003,-0.0015409763109,0.0026264621655
1238.0,-0.00067480895815,0.0004923134519,0.0034345229484999996,0.0036017584049999997
1239.0,0.00100679886515,0.0007229085475,-0.0018960349885,0.002359155199
1240.0,0.00039257753784999996,-0.00044456753594999997,0.00012307836250000006,0.0034236215869999998
1241.0,0.012220832643,0.054008059104499996,0.0096096613935,0.06374357433
1242.0,-0.047252542140000006,0.0289053781815,0.04179783687,0.10059559381
1243.0,0.0063841594825,-0.031376494539999994,-0.028175395970000003,0.064706569395
1244.0,-0.0014565199231,-0.010631289429999998,0.0004283364999999994,0.04167457292
1245.0,-0.0091416883805,-0.015313433327000001,-0.003964519429,0.01852963849
1246.0,-0.0006387342636000001,0.00011883428100000013,0.0036361168095,0.004455985464
1247.0,-0.0003919080852,0.0009736798718,0.0008129184425,0.0014026396429999998
1248.0,0.000325733254985,-0.00037560121260000003,-0.0026016219565,0.0026670052275
1249.0,-0.00038022843475,0.002478476233,0.0035489489405,0.004392983376
1250.0,0.00064934446995,-0.00010504101800000001,0.0015830423975,0.0018034974724999999
1251.0,0.0006242925992,-0.00021678919863,8.600159609999997e-05,0.00117164058455
1252.0,-0.00042672386885,0.00014839548845000002,0.00155935891,0.0017298188470000002
1253.0,-0.0001010327188,0.0007907001707499999,0.00097833657255,0.00132486326445
1254.0,0.00063342916355,1.2732244499999998e-05,-0.0010482881299,0.0012826772075000001
1255.0,-2.758652969999997e-05,5.41120391e-05,0.0004201640684,0.0011982269517
1256.0,-7.321040583999999e-05,7.95765281e-05,0.00046366590365000003,0.00068506856975
1257.0,0.00075517704115,-5.1733164050000026e-05,-0.00055265267175,0.00150469999455
1258.0,-0.00010185795595000001,0.00047639814905,0.0014631470962000002,0.0017137319323
1259.0,0.0003183061123,0.00096128445655,0.00050080161675,0.00118455650525
1260.0,0.00029310687845,0.00032541747420000006,-5.892452434999999e-05,0.00082520298475
1261.0,0.0005230830445499999,0.00014748183205,0.00022281427849999986,0.002235428462
1262.0,0.00039363855895000003,0.00046790998514999996,0.0007756058938499999,0.00108378723465
1263.0,0.0006472224284499999,0.0004870083519,-0.0009167216035,0.0012484140442
1264.0,0.0002281193805,0.0007119446711999999,0.00114908506,0.0027870587735
1265.0,-0.00015490897469999998,0.0007522634453,0.0007512024244999999,0.0020751612250000002
1266.0,0.0002493397908,-0.00020902101849999992,-0.0012159293481,0.0019609465595
1267.0,-0.0022164715789000002,-0.0036085302935,-0.0011586342350000001,0.007477213544
1268.0,-0.008821323413,-0.0003161840639999999,0.0050260534960000006,0.011500004921499999
1269.0,-0.0006992124205000001,0.0056711538795000006,-0.0047130525115,0.010987165466499998
1270.0,0.0010567762836,0.0001368716394,-0.0021857019545,0.003636537495
1271.0,0.000466848962,0.00028010937420000004,0.00136765526435,0.0015408450741499998
1272.0,0.000171885301605,0.0013252144455,0.00081274160685,0.0015697557525
1273.0,0.0004233471294,0.0007703007907000001,-0.0006238799813,0.00142607076835
1274.0,-0.00023872958425,-2.334244819999999e-05,0.0026748323639999997,0.0027332593725
1275.0,0.00038302835520000005,-0.00031830611235,-0.0012085022065999999,0.00135830767695
1276.0,-0.00012838346529,6.260020209999999e-05,-0.0005315712085,0.0024847784355
1277.0,-0.00016339713765,0.0007172497722,0.0020615625875,0.0022293689675
1278.0,0.0005443034521,0.0003840893756,-0.0013273364885,0.0015112391909999998
1279.0,0.000224936319405,0.0005368763104,0.0017061207611,0.0019498601932
1280.0,-0.00017294632106,0.00034695366155,0.00012732244495,0.00070484344305
1281.0,0.00059841549125,0.0002026548915245,-0.0017549276994,0.00187226373665
1282.0,-0.00041910304790000004,0.00052096100385,0.003254149485,0.003332980286
1283.0,0.000157031013555,0.0004403234545,0.0001570310156,0.0011545893270000001
1284.0,0.0006397952858000001,0.00016127509690000002,-0.0019448503465,0.0020550965865
1285.0,9.0186731835e-05,0.00038833345705,0.0028032158265,0.0028412730835
1286.0,-6.153918170999999e-05,0.00034377060135000004,-0.000555974676255,0.00099715799665
1287.0,0.00013108233062,0.00026806342834999997,-0.00142156521025,0.0014983692586500001
1288.0,-0.000207084230555,0.00053970569805,0.0040872904745,0.0041320707140000005
1289.0,0.000271326488,0.00039033760669999996,-0.0014667048831,0.0015853602935
1290.0,0.00024229158125,-0.00033898337749999996,-0.002202707769,0.0022465401729999997
1291.0,-0.00049408603145,0.000169215908135,0.0028095693195,0.0028586760585
1292.0,0.00025464488985,0.001101339147,-0.0003978826402,0.0013504725769000001
1293.0,0.0014394046583,-0.0008214613465,0.001151548145,0.0034358472265
1294.0,-0.00023930640879999998,-0.0005745930568,-0.0018987127927,0.0033903346269999997
1295.0,-0.00064297834695,0.00115439016755,0.0017485615597000001,0.0029609641775
1296.0,5.305101869999998e-05,0.0007596905881,0.001293383833,0.002871187884
1297.0,-0.010109225305,0.007373519019,-0.0102981121875,0.016219997825
1298.0,-0.014559548906,0.011486530745000001,-0.009099782275,0.021098545555
1299.0,-0.011772635741000001,0.0004916102799999997,0.004104923645,0.0246320139
1300.0,0.006196148455000001,0.0016924537825,-0.0096279851635,0.012688893238
1301.0,0.00150507003771,0.00100146007172,-0.0062620327439999995,0.006742142283
1302.0,0.0003066348882,0.00023766856205000004,0.0001665801988,0.0010940491545000002
1303.0,0.0004700236051,-0.000222363766,0.00019188469264999999,0.0006791577277499999
1304.0,0.00075014140475,0.0002079599934,-0.0006917852894999999,0.002163156282
1305.0,8.488162994999999e-05,0.00089019609335,0.0033379700955000003,0.0035058935995
1306.0,0.0006461614081,0.0014886115885,-0.0019639487135,0.002560044642
1307.0,0.00089974527745,-0.00049019141305,-1.909836849999999e-05,0.0026087787495000002
1308.0,-0.000247891411,0.0009510742422500001,0.0021442590205,0.0023625038515
1309.0,0.00017825142292,0.0002694991751,-0.000936880990895,0.00135023879785
1310.0,0.00044251707295,0.00033490350330000004,0.0012840914854999998,0.003039452813
1311.0,0.00034158119420000003,0.00034574948854,0.00023934009195000002,0.0012379105425
1312.0,0.0008338230714,0.000103567375805,-0.00204387049305,0.002232069802
1313.0,-2.3342448250000006e-05,0.0005220220233,0.00190665360915,0.002849211378
1314.0,0.00016127509689999996,0.00043820141555,0.0007756058930000001,0.00154135653115
1315.0,0.00044280338005,7.18630784e-05,-0.0015313176546,0.001834668261
1316.0,-0.0001223836477,0.00023883484329500002,0.0019298908005000001,0.0019797976385
1317.0,0.00021528608648,0.0003685024801,0.00067867410395,0.0009243334811999999
1318.0,0.00042759121095,0.000545364472475,-0.001586225459,0.0017897416165
1319.0,-0.0002787536306,0.0007930200993,0.0022576618891,0.002505873745
1320.0,0.00014217673019,0.000254644888,-0.00111725445425,0.0012368974395
1321.0,0.0004488116184,0.0002631330501,-0.000751202429,0.002280173781
1322.0,-0.000187800606302,0.00027056019643,0.0021368950345,0.002175203016
1323.0,0.0007427142621500001,-0.0002599499917,-0.0017421954550000001,0.0019570294113
1324.0,0.00058674426705,0.0003469536606,0.0014047909747499998,0.0025719157445
1325.0,0.00037383284529999997,0.0001230867833235,0.00057707298237,0.00082382839545
1326.0,0.00045199467949999994,0.00037772325335,-0.001370838323855,0.0016819113927
1327.0,-0.00060478161255,-0.000138993667185,0.0028010937795,0.0028924077615000003
1328.0,0.000214326115652,0.000460482841605,5.729509999999999e-05,0.001431995191
1329.0,0.00050504569825,7.321040584e-05,-0.0017687209640000002,0.0018473810305
1330.0,-4.88069372e-05,0.0002005328489,0.0018695178996500001,0.0019011052165
1331.0,0.00034030965395,0.0002200690989,0.00088919822995,0.00109911513125
1332.0,0.0007692397715000001,0.0001273224449,-0.0016636799474999998,0.001891943643
1333.0,-9.124775220000002e-05,0.000515655902,0.0023830517591,0.0024500759217
1334.0,0.00010444735089999999,0.000384805140485,-0.0005622986945,0.00082653362385
1335.0,0.00073847018075,0.00022387529625000002,-0.0008148636475000001,0.0020585465065
1336.0,0.00036286896805,0.00038939447743,0.0006949683453,0.0014892775379
1337.0,6.578326324999998e-05,-0.0001241393857,-0.0017103648435000001,0.0017822279125
1338.0,0.00010928509855000001,0.000240851625955,0.0005230830450000002,0.0028868564894999997
1339.0,0.00015278693395,-6.260020209999999e-05,0.0018101007589999998,0.0018771773804999998
1340.0,0.0014823001965,-0.0010570415435,-0.0020585395114,0.002771464066
1341.0,0.00109497303015,-0.0001368716209,-0.00039363857004999996,0.00122743332195
1342.0,-0.00074165324175,0.0014037299619999999,0.00050504569915,0.0016713734894999999
1343.0,-0.0003678035655,0.0011534764925,-0.0035177414584999997,0.0095477527865
1344.0,0.0012095632336,0.0058642596085500005,-0.0018313211634000002,0.006547209373999999
1345.0,0.00079576528085,-0.00024085161949999995,-0.000383028355,0.0023604649625000003
1346.0,0.0005952324301,0.0010504101691,0.000236607542,0.003360377064
1347.0,-8.488163000000017e-06,0.0008689756887450001,0.002094454218,0.0023741862629999997
1348.0,0.0010461660838,0.0012753464919999999,-0.00093051486845,0.0019686998275
1349.0,-0.0001368716245000001,-0.0023883568149999992,0.0009443081049999996,0.019111735855
1350.0,0.000716272960975,-0.00073658391575,-0.0004225513994,0.0021313007235
1351.0,0.0008697546104,8.83552095e-05,-0.0020514618429999998,0.002258803448
1352.0,-0.00017400734144,-0.0002313024416,0.0026992358325,0.0027216727505000003
1353.0,0.00014854285245,0.000138993670895,-0.0004148589729,0.00059940444175
1354.0,0.0003320993772,0.00034695366175,-0.0012254785315499999,0.0016182412927
1355.0,-2.1220407500000015e-05,0.000155969993205,0.0022175325778,0.00224554749315
1356.0,0.00014429877091000001,0.00018355652289999997,-0.0003660520292,0.00105975256535
1357.0,0.0005825001856,-0.00018886162758999998,0.000313001005,0.0025607047305000004
1358.0,-0.000147022898635,0.00100280319725,0.00146206923355,0.0020573337828
1359.0,0.00040743182379,0.00029496366225,-0.0020605015655,0.0022503981309999997
1360.0,-0.0009432471047,0.000652527543125,0.00348651295815,0.00451074100735
1361.0,0.0009825048452500001,5.0928975184999996e-05,0.00022599736034999997,0.0015337266494999998
1362.0,0.00087852487115,0.0010493491485000003,-0.001266858319,0.007491775916
1363.0,0.004930561693,-0.0015628829928500002,0.026544607827,0.027151232943
1364.0,-0.00616091166,0.11481028199999999,0.12038289164999999,0.2079139653
1365.0,-0.406615898165,-0.11371485946499998,0.3753656659,0.65509783635
1366.0,-0.05800704484,-0.03863811910000001,-0.012291920499999998,0.47725884110000005
1367.0,0.24338773715,0.36119305009999997,-0.52194266675,0.74339629095
1368.0,0.11499338793,-0.092032907975,0.03298075709,0.15230644325
1369.0,0.01359803712,-0.016018224558,-0.017424076585,0.027673187035
1370.0,0.0029772231485,0.0018164669050000002,-0.001207441185,0.0056452421565
1371.0,0.0011170481447,-0.00017226002610000002,-0.0022140168989,0.0025839686660000002
1372.0,0.00122547853425,-0.0008530603738,-0.0019809250355,0.0044290807665
1373.0,0.00038597563399999995,0.0007877402636,0.00101641120425,0.00143112329585
1374.0,0.00023872958428000003,0.0008265348738,-0.0008275958922999999,0.001992902255
1375.0,-9.54918328e-05,0.0002228142749,-0.0011331697571,0.00203744055515
1376.0,-0.00018037346275,0.00038939447169999996,0.00031512305099999996,0.001895884122
1377.0,0.0003405875374,-0.00016127509605,-0.002342732985,0.0025706820685
1378.0,-0.00051565590105,-0.000339526526305,0.0014896726012500001,0.0022410017908
1379.0,0.00033528243835,0.00025676693175000003,-0.00059204936885,0.0016425862535000002
1380.0,0.0014069130121000001,0.0007607516001500001,-0.0021634205359000003,0.00276938220175
1381.0,0.00038897343852,0.00045390620224999997,0.00158125297935,0.001935324309
1382.0,0.0003660520292,0.00083077894485,-0.0007172497733745,0.001287879051
1383.0,0.00034589264205,0.00033103835685,-0.0015872864804999999,0.001675891152
1384.0,-8.063754844999998e-05,-8.4881629935e-05,0.0028350464405,0.0028620750485
1385.0,0.0007830330363,2.9708571399999996e-05,-0.00035331978450000006,0.0017171631145
1386.0,0.00065820314535,0.0001983939693785,-0.00037166449300000005,0.0027571288195
1387.0,0.00019416672759999998,0.000972955685355,0.002891280513,0.0032395115315
1388.0,0.0012114284335,0.0006085288688500001,2.1014096000000022e-05,0.0021655371085
1389.0,0.005752852448,-0.0033167496896999997,-0.00321807478835,0.0076336961735
1390.0,1.5915282499999982e-05,-0.004951782098999999,0.0023872958632,0.0131012280095
1391.0,-0.0029262941965,0.0016583748270000004,-0.0034674145925,0.01457685631
1392.0,0.01495108228,0.01494056470445,-0.01694767001,0.02939605536
1393.0,-0.0023692584745,0.0017146088955,0.011688200449499999,0.012332818923500001
1394.0,0.0024552011279499997,-0.0009825048500000004,-0.0010228236389999996,0.0114758794775
1395.0,4.031877335000001e-05,-0.0005506695686,0.0031979154085,0.0034526196739999996
1396.0,6.47222428245e-05,0.00025782794819499997,-0.00060478161325,0.00119821636475
1397.0,0.0003745401922,0.00030557386695,-0.0025146182856,0.0027741597305
1398.0,-0.000325703782185,-1.9961498395e-05,0.0018748945719050001,0.0019730019552
1399.0,0.00018886162665000003,0.0005634018170999999,-0.0018355652465,0.002195553592
1400.0,0.00067973512435,0.00012885081765000002,-0.0004873325525,0.002909321569
1401.0,0.004952674711,-0.004274185878,-0.0009685263520000003,0.012920709766
1402.0,-0.00033536243585000004,0.0021782495672499997,0.0026818763484,0.00400653381525
1403.0,-0.0010837649461,0.00126306896605,0.0042268062265,0.0046381374425
1404.0,0.001464208116,0.00011989529955,-0.00147057424,0.0020891921965
1405.0,0.0017093038235,0.00015066489040000002,-0.0047374559625,0.0050737035785
1406.0,0.001405851996,-0.0002567669297,-0.00016870223949999998,0.0022293008225
1407.0,-0.000183556522,0.001292322815925,-0.0010854238466,0.0024767154705
1408.0,0.00040637080249999997,0.0003639299894,-9.655286649999997e-05,0.005400832177
1409.0,-0.00021114305539999997,0.00092627078585,0.00257934052745,0.00292411510415
1410.0,8.169854650000004e-05,-0.0023077193295,-0.006581509381,0.008675463142
1411.0,-0.00016021407564999998,0.000165519176568,7.957653099999987e-05,0.0035271997065
1412.0,-0.000103979996715,-7.851551419999999e-05,-0.0011565122025999999,0.0018116369589499999
1413.0,0.0001262614385000001,0.0015787983175,-0.0016286662815000001,0.0059204914685
1414.0,-0.0003745401922,-0.00028965856065000004,0.000378784270916,0.0014107649635
1415.0,0.0005411203919,-9.761387355000001e-05,-0.0014854285234999999,0.0015990333825000001
1416.0,0.0004923134537649999,0.00034801468284499995,-0.00207323380705,0.0026838313395
1417.0,-4.2440815e-05,7.745448736000001e-05,0.003299773361,0.003332670542
1418.0,0.0011077052709999998,0.00042546917025,-0.0018631517775,0.0023636172349999996
1419.0,0.0006854191617,-8.912571215e-05,-0.000298146728,0.002586449858
1420.0,0.00023554652315,6.578326325000001e-05,0.0007013344676,0.0016966548804999999
1421.0,0.0006854191618,0.0005676459003,-0.001818588922,0.0020778124985
1422.0,0.00046154386300000026,0.011486606545,-0.022038454205000002,0.025488395035
1423.0,-0.030396111725,-0.039091173709999996,0.054518410025,0.07543853315
1424.0,0.010333487983,0.0020819156099999995,-0.013945664456500001,0.028029637375
1425.0,-0.0009628844120000001,0.007214176472,0.000684433924,0.0082309787225
1426.0,0.001721652916,-0.00089952213185,0.00090466301425,0.0028663175160000003
1427.0,0.00020795999345000002,0.00034801468095,-9.33697964999999e-05,0.0036206344965
1428.0,-0.00016803278895,0.00034240642950000003,0.0026346272675,0.002752571001
1429.0,0.00053863625605,0.00104680606525,-0.0008913202707,0.0021849087925
1430.0,0.0006182001485,5.065530855e-05,0.002047264071,0.0061602217455
1431.0,5.623407894999997e-05,0.00023766856295,0.0002132650895000001,0.0032463222465000004
1432.0,0.00117773261475,-9.54918337e-05,-0.0031236439825000004,0.003416089112
1433.0,0.0002716212159,-2.1220407499999988e-05,0.0021687256462,0.002292856149
1434.0,-2.5464489915000002e-05,0.001073752621,0.0010939120059,0.0016219398835
1435.0,0.00047533712705,0.0002546448843,-0.00197561993635,0.00210620712855
1436.0,-0.00035013672355,-0.00010291897630200001,0.002049891359,0.002090319771
1437.0,0.00071194467125,0.0008254738513,0.000232363462,0.001256471784
1438.0,0.0004082444307,5.909715071e-05,-0.0014461034041199998,0.00157368385255
1439.0,-0.0008615485442,-9.7613874455e-05,0.0020498913626000002,0.0022414021595
1440.0,0.00035945854543,-0.00035481868650000004,-0.000208132620635,0.0006553724411999999
1441.0,0.0006854191619,-0.0006960293675,-0.0018960434093500001,0.0023097736205
1442.0,-0.0002249363194,0.00118834281645,0.0025655472580000003,0.0028687061545
1443.0,0.00034695366244999996,0.0007310430380000001,-0.00048488631189999993,0.0011851428808499999
1444.0,0.0004572997814,-1.5915305620000003e-05,-0.0011575732285,0.0012525529811
1445.0,0.0006132697762,0.00024297366484,0.0018981654492250001,0.0024338748029999998
1446.0,0.00047639814815000003,0.0011607562886,0.00027798733810000003,0.0017987489895
1447.0,0.0004997405964,-9.124775249999995e-05,-0.0005220220242,0.001487914935
1448.0,0.00019098366740000002,-7.95765281e-05,0.0003925775369999999,0.0037318524785
1449.0,-2.652550935000001e-05,0.00056658488,0.0016870223945000002,0.0030145394275
1450.0,0.0004848863111,0.0005517305947,-0.001554394849,0.001753220643
1451.0,0.0001793124433,-0.00011565122083,0.00010610203650000013,0.003276474472
1452.0,-0.00013659795239999998,0.00017942612404999998,0.0020683539592,0.0021782389105
1453.0,0.00107583255595,-0.0008465047909,-0.0014298638975,0.002026988235
1454.0,0.00049063350485,0.000914645876,-0.00082935584325,0.0017013049345
1455.0,-0.0007161887528,0.0010472271089,0.004561326586,0.004740693463
1456.0,0.001187854413,-2.6420251249999953e-05,-0.0014436024275,0.001986843382
1457.0,0.00040212672192,0.0006705648764,-0.0014864895457,0.0021820233435
1458.0,0.0001506648931735,-3.925775385000001e-05,0.002220715644,0.002270442473
1459.0,0.0005899273282,0.0002864755011,-0.00026843815475,0.00071091804135
1460.0,0.00082547385135,0.0006896632434,-0.00181328382,0.0021591919475
1461.0,0.00080743650335,-0.00011034611895,0.00203185401735,0.002512966996
1462.0,0.00093957564535,0.00010685991287,-0.000127461386235,0.0009894186336
1463.0,1.4854285249999989e-05,0.0008477552792,-0.000718310793,0.0022767426425000003
1464.0,-0.001217445093,0.0009384472588,0.004394215872,0.00465531835
1465.0,-1.3793264869999999e-05,0.00040212672192,-0.0005644628392,0.0007160787931
1466.0,0.00052727239095,0.0005672164381,-0.0026290779655,0.002856500435
1467.0,-0.00013156652644,-2.0159387099999985e-05,0.003297651324,0.0033298882340000004
1468.0,0.0003034518271,-1.485428524e-05,-0.00020795999315000003,0.00096575398435
1469.0,0.00058992732815,0.00042440814979999997,-0.0015321134145000002,0.003174230972
1470.0,-2.3350869049999984e-05,0.000738028088,0.002265173237905,0.0026348119007
1471.0,0.00040743182381500003,-3.183062050000012e-06,-0.0007607516085,0.00107715701815
1472.0,0.00061008671549,0.00043714039430500003,-0.00038515039649999984,0.0028364460249999997
1473.0,-0.00058919471905,0.00021353035037,0.0021330677825000003,0.002320765889
1474.0,0.00032084076564999997,0.0007659472363,-0.0019723611605,0.002187839422
1475.0,-0.0001230783579,0.0037156933411,-0.0009559792905,0.004363391752
1476.0,0.001829199148,0.0710056054555,0.028444895195,0.08298086267999999
1477.0,-0.05822985951,0.069597631425,0.054517348995,0.1753447768
1478.0,0.23808766734999998,-0.14029023405,0.73659854195,1.12369370885
1479.0,0.12764817825000002,-1.09056130695,-0.25790858905,1.1561498581
1480.0,-0.089286986785,-0.04750718735,0.0384662326,0.1099278908
1481.0,-0.015775250929999998,-0.0050005890155,0.0062409218695,0.017762194454999998
1482.0,-0.0139078551345,-0.0008169857200000007,-0.018234696245,0.045738800664999996
1483.0,-0.01310466267365,-0.007777279324,0.0071353620130999995,0.018189125676999998
1484.0,-0.010617630887,-0.0146590574575,-0.0007830330734,0.019581839743000002
1485.0,-0.09746108818499999,0.19828667184,0.03155686785,0.47155647085
1486.0,0.3825190658,0.0189784724,0.13231560660150002,0.5243959632499999
1487.0,-0.08590445370000001,0.161068197986,-0.042297577249999996,0.42167291645
1488.0,0.0025740352149999993,0.035814742805,0.1780105713,0.1970392423
1489.0,-0.005278576385000001,-0.08189379620000001,0.1755850786,0.593507318
1490.0,-0.0330974693,0.052594780524999996,0.052034561565000005,0.2519794621
1491.0,0.4272813948,-0.064256454635,-0.13950083763499999,0.45754023945
1492.0,-0.16411572485,0.008284892675,-0.026185460995,0.18343656935
1493.0,0.20995699129499998,-0.099608121125,0.0176180439205,0.25795092671
1494.0,-0.43325420295000006,0.3626967412,0.0799865487693,0.6147410793000001
1495.0,-0.7154126806000001,0.5392613214499999,0.5065269337,1.1653484903
1496.0,0.13090465844999996,0.3650792479,-0.388371321675,0.8065879748
1497.0,0.4578854652,0.057826671555,-0.3264759682,0.5718195634000001
1498.0,0.12430890596,0.0341097676765,0.005965481225000001,0.1349729085
1499.0,-0.021490645075000002,-0.009139969045450001,0.00879482335,0.033150311965
1500.0,0.0008458199615,-0.0008958873879,-0.0055787899306500004,0.006282282822
1501.0,0.0034823494528,-0.0005688512444999999,-0.0029827404545000004,0.0049936790695
1502.0,-0.0003700626928,0.0016827570924999999,-0.0011306827506,0.002465378568
1503.0,0.0017243703634999999,0.00077067427565,-0.0024900832651,0.00350682256
1504.0,0.00190682338,0.0006380934119,-0.0022967101645,0.0030680890460000002
1505.0,0.0009401456498500001,0.0007168975323000001,-0.0026632685295,0.002914276488
1506.0,-0.00019857922595500001,0.0019104850575,0.0004631985614,0.0021704422074999997
1507.0,0.001795246469,0.0006960293628,-0.0025857066695,0.003315557417
1508.0,0.001956521581,-0.00205625749675,-0.004636659059000001,0.006239082666
1509.0,0.0020283467301,0.0015102698825,-0.003396296761,0.008373259403
1510.0,-0.00046254168,0.0032980386719499996,-0.0015783772250000001,0.008706731677
1511.0,-0.006854477899999999,-0.0005535074050000001,0.00787075002,0.04338329003
1512.0,0.004169506954999999,0.0056053410735,-0.0048629091149999994,0.044895583239999995
1513.0,0.002895861415,0.0011946626125,-0.0020671497908,0.004044622773
1514.0,9.973591519999999e-05,0.0012435158790000001,-0.0007756058918500001,0.0014930566
1515.0,0.00071406671215,-0.0005262661048049999,-0.0028265582765,0.002990622531
1516.0,-0.0005842348697,0.00042730911425,0.0049380267045,0.0050052738885
1517.0,0.0005612797745000002,-0.0023894178739999996,-0.012872299153000002,0.013858289331000001
1518.0,-0.0014291944611950001,-0.00056976793717,-0.0027459207311,0.00374685308175
1519.0,0.0006939073335000001,0.001382509557,0.0009538573115000001,0.0059431145005
1520.0,0.00316077969,-0.0033570684575,-0.0060945010285,0.0076533016605
1521.0,0.0033146276170000002,-0.0033464582555,-0.0027480427495,0.0055334048805
1522.0,0.0029528196985,-0.00297191807465,-0.0040339994565,0.006045079727
1523.0,0.0041613219114999996,-0.005955507354499999,-0.0032244408984999995,0.008079264304
1524.0,0.0032785529635,-0.0019883521725,-0.002725761338,0.004777396765999999
1525.0,0.0015713711755000002,-0.00217827482145,-0.002444590939,0.0039214732885
1526.0,-0.00026101099200000004,0.0063353526335,-0.0012477599489999999,0.009838379066
1527.0,-0.00184723647745,-0.005273271269,-0.0079958495205,0.0130499897345
