Time (s),Linear Acceleration x (m/s^2),Linear Acceleration y (m/s^2),Linear Acceleration z (m/s^2),Absolute Linear acceleration (m/s^2)
0.0,0.004965041939,0.007779915584,0.187271893,0.1874991751
1.0,0.02290467291,0.01624157327,0.19290273905,0.19495109395
2.0,0.022007802265,0.010275050171,0.19739333409999998,0.198886361
3.0,0.01810171161,0.0055319592965,0.19917765269999999,0.20007903435000002
4.0,0.018138381095,-0.0005399203170000002,0.19907675445,0.1999251534
5.0,0.01996444088,-0.000499485298055,0.2009762995,0.20196694045000002
6.0,0.014816276315,-0.001931223486,0.19992636875,0.20049057835
7.0,0.011569676035,-0.0050298297215,0.2020828535,0.20248281345
8.0,0.0084304570975,-0.0035157857075,0.20323811635,0.20346536604999998
9.0,-0.02473984052,0.020989614505000004,0.21328582465,0.25603434225
10.0,-0.10991417931,-0.2031600595635,-0.02320280175,0.4923290276
11.0,-0.22939849656,-0.38831436446999995,0.05608763580000001,0.61463922825
12.0,0.035116415175,-0.09981150665,0.2301561757,0.3873882387
13.0,-0.07187218502500001,-0.008414212035,0.2005106703,0.233847837
14.0,-0.09295454852,-0.030331238990000002,0.15924770555,0.1932253303
15.0,-0.05976917062500001,-0.056809707295,0.16897640530000002,0.18809942995
16.0,-0.052525037814999995,-0.05434096995,0.17376861875,0.1896436916
17.0,-0.047672357855,-0.036488594335,0.17945015255,0.18951619625
18.0,-0.035234419275,-0.034667001065,0.1850948963,0.19161357465
19.0,-0.04190784409,-0.037139714715,0.17792720645,0.18653945515
20.0,-0.08065411262,-0.046517703685,0.1668594554,0.19118796465
21.0,-0.07360212765,-0.049968038285,0.16359946085,0.18622765089999999
22.0,-0.083269991465,-0.04740944631,0.16123375995,0.18762326964999998
23.0,-0.054552585939999995,-0.053785860205,0.1691310666,0.1857708632
24.0,-0.064467938855,-0.058492359555,0.16371140704999998,0.18579353310000002
25.0,-0.074780053565,-0.047830727365,0.15714387289999998,0.18426587505
26.0,-0.037867786705,-0.03873971611,0.17734277035,0.186616228
27.0,-0.059127864385000006,-0.045154177955,0.16912050855,0.18477901675
28.0,-0.05931186487,-0.04632607717,0.16758701539999998,0.1837263959
29.0,-0.051137772814999996,-0.05056183868,0.1693816185,0.1841735724
30.0,-0.046865453645,-0.054454701565,0.16968808635,0.18449309335
31.0,-0.067398213205,-0.063729740325,0.16087417755,0.18570387984999998
32.0,-0.05784305883,-0.060794009105,0.16297811175,0.18332733095
33.0,-0.059218552375,-0.057202715725,0.1651848233,0.1845690865
34.0,-0.05669846616,-0.05905234066,0.16444346155,0.1837290589
35.0,-0.054129399425,-0.058708916439999995,0.16578628210000002,0.1840325342
36.0,-0.05529403695,-0.056649232665,0.1650273518,0.18304968045
37.0,-0.052509330595,-0.060032043575,0.16462539869999998,0.18292802130000002
38.0,-0.052373842585,-0.05693512493,0.1663555418,0.18346608485
39.0,-0.055211827394999996,-0.05717172988,0.16525136455,0.18337809245
40.0,-0.05178684469,-0.05532558002,0.16748110449999998,0.18383914435
41.0,-0.054385824625,-0.057409498305,0.16522325845000002,0.18319342430000002
42.0,-0.04245711319,-0.05010701929,0.1739982499,0.1863537462
43.0,-0.03244211371,-0.04308182096,0.17842074045,0.186584348
44.0,-0.053604305734999996,-0.052611394534999995,0.16934417540000002,0.18530166115000002
45.0,-0.04922324956,-0.0594912984,0.16898295585,0.18579518865
46.0,-0.055691887465,-0.06250719608,0.16454410554999999,0.1846999539
47.0,-0.06827963936,-0.05817832721,0.16215800045,0.18531725934999999
48.0,-0.064438793395,-0.06158297781,0.1618982118,0.18481575945
49.0,-0.06111193271,-0.063717039805,0.1634105274,0.18577170115
50.0,-0.052827696955,-0.065125645155,0.16708619255,0.18697456955
51.0,-0.05111333639,-0.055430994,0.16827659709999998,0.18439841545000002
52.0,-0.047532846055,-0.056213411075,0.1693231946,0.18466560464999998
53.0,-0.064434850025,-0.046978653425,0.16790162195,0.1859297849
54.0,-0.07403357445,-0.0468143641,0.16480277075,0.18667389585
55.0,-0.0752116139,-0.047860664035,0.16187303785,0.1848005607
56.0,-0.07012190095,-0.043136932885,0.1653770712,0.18478514465
57.0,-0.061146960195,-0.05102031048,0.17020104395000002,0.1880205162
58.0,-0.060789210455000006,-0.042241070005,0.1704353302,0.18581915370000002
59.0,-0.056177038995,-0.044506684180000006,0.1715025296,0.18588698004999998
60.0,-0.05309483172,-0.0496507656,0.17230895964999998,0.18701907285
61.0,-0.053247928614999995,-0.04733530302,0.1733738203,0.18744819125
62.0,-0.052211076495,-0.04955034218,0.1714423952,0.18594499035
63.0,-0.052072095585000006,-0.048131812705,0.1707429118,0.18488425595000002
64.0,-0.051046263455,-0.054287149795,0.17168266054999998,0.18716031919999998
65.0,-0.050419010815,-0.055419327724999995,0.17092378554999998,0.18662369915
66.0,-0.05595748559,-0.05710593539,0.1685976506,0.18660836050000001
67.0,-0.06149033516,-0.06288027385,0.1631091436,0.18534454579999998
68.0,-0.06190509437,-0.06340573335000001,0.1639909367,0.1864614073
69.0,-0.054611329050000004,-0.059761671795,0.16832683955,0.1871545916
70.0,-0.045977170505,-0.055979289705000004,0.1714434624,0.18613082985
71.0,-0.04890719671,-0.05161214821,0.1739830668,0.18798384795
72.0,-0.050219193335,-0.048843451905,0.1732451424,0.1868929238
73.0,-0.04801832128,-0.049809248890000005,0.17418606060000003,0.1874295798
74.0,-0.051831907085000004,-0.055522071310000004,0.17303228399999998,0.1890096665
75.0,-0.05328922423,-0.05721912308,0.1701078869,0.1872176879
76.0,-0.05389203183,-0.062011926985,0.1679915909,0.1871040319
77.0,-0.062355349935,-0.0559256512,0.16731789,0.18733322865
78.0,-0.059464195415,-0.05421951839,0.17646582919999998,0.19657115995000002
79.0,-0.07595090448000001,-0.02723027032645,0.152273988,0.18860780195
80.0,-0.044454768714999995,-0.054158533525,0.17494550055,0.18907074424999998
81.0,-0.056875092645,-0.04284130581,0.17349342315,0.18757589725
82.0,-0.048307959995,-0.039110151545,0.1717355819,0.18351933380000002
83.0,-0.066169820515,-0.04229333354,0.16564025695,0.1836390097
84.0,-0.049882784725,-0.039575726265,0.1709640442,0.1824946012
85.0,-0.046612663875,-0.03809201528,0.17395227675000002,0.18407453395
86.0,-0.050587073205,-0.037751833595,0.1722127672,0.1834630558
87.0,-0.05608452328,-0.040419083859999996,0.16957211665,0.1831377979
88.0,-0.052577813255,-0.044944841799999996,0.1692225718,0.18281509634999998
89.0,-0.050016840295000004,-0.04968094069,0.16976245245,0.1838302121
90.0,-0.050731349615000004,-0.053344076555,0.16898020474999997,0.18432230324999999
91.0,-0.054227817479999996,-0.055399084705000004,0.1686553408,0.18562769865
92.0,-0.048440231985,-0.05909762969,0.16781335819999998,0.1843943465
93.0,-0.05381560704,-0.053997166575,0.16945898720000002,0.18581920899999999
94.0,-0.056202986669999996,-0.057074554015,0.1673210107,0.18551875315
95.0,-0.05008860467,-0.052969356460000006,0.17173941555,0.18657721265
96.0,-0.052004610765,-0.05456572694,0.1708576764,0.186762449
97.0,-0.05412905395,-0.05734610252,0.16959144625,0.18706638730000003
98.0,-0.055105214750000006,-0.059803588935,0.1679071433,0.1865861382
99.0,-0.060058896505,-0.059962651085,0.16819897905,0.18839744555
100.0,-0.041699646015,-0.05164478317,0.1749796716,0.1873307107
101.0,-0.027846249325,-0.045422930565000005,0.18167107445000003,0.1893822162
102.0,-0.043713590455,-0.053964289405000004,0.17558699565,0.1888614226
103.0,-0.05769029496,-0.055227362925,0.16957796190000002,0.18750731365
104.0,-0.05721657995,-0.059843581820000005,0.1694553542,0.18860851685000002
105.0,-0.05559100045,-0.055037729325,0.1694333288,0.18662883745
106.0,-0.058756974005000004,-0.055013215729999995,0.1686936333,0.1869145512
107.0,-0.06133455133,-0.05857596322,0.16735767940000001,0.1876507523
108.0,-0.059491887285,-0.06034258034,0.1672590282,0.18751810045
109.0,-0.061253804535,-0.058474595115,0.16768619155,0.187886163
110.0,-0.061193384889999994,-0.058129159070000005,0.16581680745,0.18607955990000002
111.0,-0.06337545978,-0.055853323329999996,0.16621657025,0.18645753929999997
112.0,-0.062915679005,-0.05183874047,0.1665760222,0.1854614054
113.0,-0.05762662234,-0.051178315835,0.16932550195,0.1860441138
114.0,-0.059503990505,-0.05383992763,0.1693562856,0.18742449989999999
115.0,-0.061386770675,-0.053839112085,0.16747585935,0.18632513304999998
116.0,-0.0627917038,-0.061364661875000004,0.16407941510000001,0.18613636300000003
117.0,-0.05916654496,-0.064285420235,0.16510566835,0.1868045901
118.0,-0.055982265485,-0.0612952939,0.1676783298,0.1871182914
119.0,-0.0554693275,-0.06274196837,0.1665574104,0.1864309838
120.0,-0.07323924313499999,-0.061182960334999995,0.16663624845,0.19321742895
121.0,-0.023663869475,-0.068975742605,0.15326002705,0.18711003129999998
122.0,-0.051126690135,-0.04719936848,0.1722091342,0.18996763970000002
123.0,-0.07549496681000001,-0.05466063817,0.1592888908,0.18555648195
124.0,-0.08620284097,-0.057647601009999994,0.1850930093,0.2497392105
125.0,-0.061203059695,-0.004560222699999998,0.15850542839999998,0.17573434985
126.0,-0.08069006097,-0.03077693214,0.169416192825,0.1929574278
127.0,-0.031998971152000004,-0.085220158078,0.18759794843,0.21295497709
128.0,-0.043586558430000005,-0.013464249927999999,0.10691597152000001,0.11768353442500001
129.0,-0.0689369459,-0.09998821266499999,0.27319676155,0.2996066935
130.0,-0.02607642643,0.0008146503249999992,0.071670205365,0.121682872725
131.0,-0.06730296173,-0.07407928503899999,0.20845735399999998,0.23554454045
132.0,-0.13591688737000002,-0.026928916368,0.14840849731,0.20808719891
133.0,-0.02538177412,-0.134572239335,0.14873818514999998,0.2121649463
134.0,-0.06918564105,-0.078311055422,0.14299910785,0.2216933739
135.0,-0.10843113406499999,-0.431914820285,0.1829975058,0.50704043805
136.0,-0.42280342174999996,0.4964163764,0.45150755530000003,0.9210062063
137.0,-0.1431592355,-0.52411867893,-0.16250996745000001,1.17348711565
138.0,-0.08813450427,0.10976803680250001,0.16716231999,0.31941977974999997
139.0,-0.036262663585,0.0623597796,0.1851046691,0.19932905104999998
140.0,-0.0036521109500000006,0.043152405825,0.1370992722,0.153717111
141.0,0.09522916285500001,-0.012808420899999992,0.1533076542,0.39840829990000004
142.0,-0.04121281401,-0.060217378665,0.288227466705,0.32093834510499997
143.0,0.098697569065,0.06436741935500001,0.19327383939999998,0.2309824098
144.0,-0.09868750720500001,0.15294899418000002,-0.15584371262,0.29401143125
145.0,-0.1163982096,0.45625839065,0.586226902215,0.9473898355500001
146.0,-0.0002102754400000002,0.038740905215,-0.068381925555,0.081969207265
147.0,-0.1379055601,-0.056634292461000005,-0.028118447699999993,0.45815830265
148.0,-0.23361856945999998,0.24428621769999997,0.53579352525,0.98905921245
149.0,0.06033596497,-0.318431217775,-0.3090006226,0.5221750093499999
150.0,-0.016590467584999997,-0.9126333087,0.11094858948,0.96577507295
151.0,-0.07092619453,-0.13720340043,0.18216505395,0.25290504115
152.0,-0.21501386295,0.2845301856,0.13978248469,0.4019862473
153.0,-0.07525761852,-0.11341815076775001,0.14161747305,0.22285570605
154.0,-0.07448493027,-0.052766619325,0.16638026150000002,0.19353587045
155.0,-0.1184525343,-0.04143967995,0.181030875,0.2202735292
156.0,-0.06312838076999999,-0.035775641135,0.17439780755,0.1889856416
157.0,-0.06868286747499999,-0.031642831885,0.1765674428,0.19209327194999998
158.0,-0.07681009414500001,-0.018157733095000003,0.17589425675,0.1928126759
159.0,-0.08083391438500001,-0.019776544309999998,0.173951413,0.1928331361
160.0,-0.079609829435,-0.028082047615,0.17251469635,0.1920652406
161.0,-0.081509221965,-0.032250457575,0.17107244925,0.19222508924999998
162.0,-0.08460585917499999,-0.03487401699,0.17243302179999997,0.195220495
163.0,-0.07783733762,-0.039883550645,0.17198047835000002,0.1929646101
164.0,-0.07974917280999999,-0.04164175049,0.1717651968,0.19390982210000002
165.0,-0.075805882795,-0.04488166584,0.17300349069999998,0.19420289364999999
166.0,-0.071759179715,-0.03697154983,0.1750979885,0.1928668364
167.0,-0.073453490285,-0.02947193091,0.17633183125000002,0.19330528705
168.0,-0.07321823816,-0.034481418915000006,0.17669888795,0.19436681725
169.0,-0.06876537318,-0.035279203865,0.1785441793,0.19455964815
170.0,-0.0681800805,-0.030869147740000002,0.17781243470000002,0.1929258468
171.0,-0.06703905695500001,-0.03518310652,0.17777642405,0.19328065725
172.0,-0.07166945615,-0.03972516308,0.1756691748,0.1938517457
173.0,-0.057999712045,-0.0427693455,0.1819525003,0.19574055405000002
174.0,-0.057723043455000005,-0.040401405754999994,0.18391133115000002,0.19700757055
175.0,-0.06494116428999999,-0.03790136131999999,0.1777508002,0.19301134790000002
176.0,-0.06975663807,-0.03741848324,0.1767288044,0.19364736075
177.0,-0.07290466875,-0.041796474230000005,0.17479384315000002,0.19394653655
178.0,-0.07530817094,-0.04586077658,0.1722026575,0.19346469500000002
179.0,-0.07671806889499999,-0.04572682419,0.17386386474999999,0.19546758225
180.0,-0.070029325785,-0.048665520735,0.1746500507,0.19436970915000001
181.0,-0.06822284575,-0.043519657465,0.17656877734999998,0.19426681465
182.0,-0.06613733878,-0.04334648849,0.17750052615,0.1943363931
183.0,-0.06596441996,-0.043204867189999996,0.1781540129,0.19482944554999998
184.0,-0.06581506866,-0.04335841193,0.17783012595,0.19451389959999998
185.0,-0.070049666685,-0.049227682235,0.17415593164999998,0.1940684465
186.0,-0.068199739295,-0.05045282273,0.17438281545,0.19394112940000002
187.0,-0.075658862555,-0.04539939903,0.17216769475,0.19346803525
188.0,-0.07846219274499999,-0.04092911132,0.1709097836,0.19247029215
189.0,-0.07373907896500001,-0.046031534995,0.1735664827,0.19412457665
190.0,-0.07582938860499999,-0.04411468809,0.17210507014999998,0.1931849785
191.0,-0.0722607355,-0.047412754599999996,0.1744023086,0.1946546495
192.0,-0.07435508551,-0.045623856569999996,0.17294068785,0.19371222664999999
193.0,-0.07882157015499999,-0.038906720894999997,0.1727362133,0.19383720059999998
194.0,-0.078754916275,-0.04074122088,0.173832845,0.19514791015
195.0,-0.07199931043999999,-0.045941338525,0.17389517475,0.1937408939
196.0,-0.076761435725,-0.039518507359999996,0.17456787995,0.19504499395
197.0,-0.0644962534,-0.03958677736,0.17895722185000001,0.1943711208
198.0,-0.067217879825,-0.036040336365,0.17858897315,0.19423314084999999
199.0,-0.07139786006,-0.038150512315,0.1756667214,0.19342172764999999
200.0,-0.06974332957,-0.038390353355000004,0.17622825265,0.1933789079
201.0,-0.073190293615,-0.03832361528,0.17543967565000002,0.19392655874999998
202.0,-0.06707511918,-0.04496477115,0.1761188588,0.1937557177
203.0,-0.07160139599000001,-0.043605749645,0.17471078325,0.19379853349999998
204.0,-0.073479396985,-0.045748297215,0.174787578,0.19505013840000002
205.0,-0.072354742475,-0.04633548345,0.17520372185,0.19517328955000002
206.0,-0.076469969755,-0.04241450192,0.17286412005000001,0.19374516790000001
207.0,-0.073501912255,-0.043528423600000005,0.17407026445,0.1939090061
208.0,-0.07655400132500001,-0.043809797085000005,0.17292401905,0.1941455185
209.0,-0.07532636441,-0.049136248385,0.17306541845,0.1950394564
210.0,-0.07543575953000001,-0.04803408706,0.1726959622,0.194478109
211.0,-0.07492909609,-0.04950931488,0.1723378642,0.19434277020000001
212.0,-0.07586544438000001,-0.043708096530000004,0.17346052265,0.19431681665
213.0,-0.0770301823,-0.045446329689999995,0.17310996945,0.1948564645
214.0,-0.07137344002,-0.04656814348,0.17491713985000001,0.19458463515000002
215.0,-0.073018501595,-0.046902473619999996,0.17602020499999999,0.1962546222
216.0,-0.068264677415,-0.04867682003,0.17683903374999999,0.1957275026
217.0,-0.07030655327999999,-0.045467386545,0.17665380530000002,0.195530402
218.0,-0.069965042915,-0.048265997375,0.17568893255,0.19517112045
219.0,-0.06933165915,-0.045427857605,0.17658643825,0.19508028845
220.0,-0.070568289075,-0.043130581345,0.17702201055,0.19540003569999997
221.0,-0.07286412082499999,-0.039508893155,0.17663915455,0.1951238494
222.0,-0.070016124185,-0.03821613149,0.17713319295000002,0.19427615485
223.0,-0.068187517145,-0.0405821507,0.17872340879999998,0.1955481869
224.0,-0.06761914299499999,-0.044799268340000004,0.1768554108,0.19457436630000002
225.0,-0.06829833394,-0.043800220895,0.1770609271,0.19482016315
226.0,-0.06383709981999999,-0.04387632478,0.17860176415,0.1946797092
227.0,-0.07455138176500001,-0.041326821794999996,0.17503249455,0.19468946739999998
228.0,-0.08766870759,-0.038923585785,0.16973645240000002,0.19496521125
229.0,-0.07187345671,-0.042648511269999995,0.17671831075,0.19579858165
230.0,-0.08771840590999999,-0.037372398715,0.1620561646,0.1882047102
231.0,-0.10028228348,-0.07081442792,0.15708267134999998,0.1994876602
232.0,-0.14393911045,-0.091569114945,0.11943008985,0.25896247145
233.0,-0.066451319215,-0.021639661894999995,0.154808181985,0.21656788655
234.0,-0.1440081634,0.05065115169,0.09140328318,0.1779282172
235.0,-0.1275649149,0.031043585957499998,0.186347666265,0.2579240034
236.0,-0.04005025865,0.04629521036,0.116358043435,0.14423576394999998
237.0,-0.10781707084,-0.41370744365,0.078204412305,0.49061902999999996
238.0,-0.097408242735,-0.08332261683,0.13203639805,0.18406838025
239.0,-0.106209451145,-0.04690893908,0.1277835292,0.17451925935
240.0,-0.09758040983499999,-0.06507956597,0.13347470765,0.17775444265
241.0,-0.09871556332,-0.072143600235,0.12961057175000001,0.17818675765
242.0,-0.09732591506499999,-0.070756478715,0.1327557053,0.1791761362
243.0,-0.1033132514,-0.076602816165,0.1286020981,0.1819097615
244.0,-0.09903305137,-0.07120310066999999,0.13318048905,0.1806859736
245.0,-0.087886065115,-0.05876240646,0.1442274005,0.17922646085
246.0,-0.086706903245,-0.054787751225,0.14743340205,0.17962651480000003
247.0,-0.08737083087,-0.047862609225,0.1480112984,0.17847223875
248.0,-0.090192824545,-0.030376893704999998,0.15549814495,0.18246582055
249.0,-0.0879953778,-0.005260603769,0.16114059705,0.1839687147
250.0,-0.06870982669,-0.043101119545,0.1609278971,0.18457028949999998
251.0,-0.09024916755000001,-0.04910485328,0.1580951933,0.19214707465
252.0,-0.060084200835000004,-0.062024024235,0.14097602915000002,0.167706943
253.0,-0.09757155418999999,-0.034058263255,0.15430723485,0.18591646630000003
254.0,-0.083215234415,-0.033797197455,0.15536009985,0.18003448574999997
255.0,-0.09126868563,-0.05226882034,0.14424083585000003,0.17852446
256.0,-0.11959540000999999,-0.056948225034999994,0.21608307265,0.27967140085
257.0,-0.42979532991499997,-0.07780044005000003,-0.15201071765500002,1.04745047825
258.0,-0.07571794363499999,0.010144508999999996,0.11615159323,0.39716335365
259.0,-0.24205954617,0.003323755985000003,0.0975882605435,0.3253948309
260.0,-0.069887236745,-0.07223291185,0.15550052609999998,0.19084435970000002
261.0,-0.068372043825,-0.008372132415,0.16632344755,0.18233425
262.0,-0.115865800595,-0.06311948714,0.12768243217,0.21311803195
263.0,-0.076559564525,-0.037373351305,0.1739347281,0.21562765
264.0,-0.039377604555,-0.03228757854,0.188881548,0.19617349815000001
265.0,-0.036253313805,-0.047409481255000004,0.1836872424,0.1968387722
266.0,-0.09030548936,-0.058099034334999994,0.1488535742,0.18666866189999998
267.0,-0.1207068668,-0.05721353032,0.14860728055,0.20132361655
268.0,-0.07778587201500001,-0.020885701545,0.13984043229999998,0.16688597830000002
269.0,-0.080134486795,-0.041381981215,0.183235728,0.20771836135
270.0,-0.06758463731,-0.047126113315,0.14770320225,0.17149177855
271.0,-0.07891626569499999,-0.034595325055,0.14914771725,0.18158402985
272.0,-0.10550892544,-0.07726043367999999,0.1721188795,0.2162820125
273.0,-0.069962972715,-0.028999496554999997,0.14398164614999998,0.1669074991
274.0,-0.089466171135,-0.0427964327925,0.15938749645,0.19018571195
275.0,-0.086814671545,-0.05907177676,0.16412529835,0.1964550722
276.0,-0.076157286295,-0.026025191365,0.13557243554999998,0.1577736904
277.0,-0.09529302234,-0.06568859494,0.16583394245,0.2023181222
278.0,-0.22875851546,0.06875180570950001,0.07417073671,0.28000925591000003
279.0,-0.16194514631,-0.005882933445,0.12922063325,0.2193514431
280.0,-0.09009503741,-0.031113341455,0.13838373185,0.16806457995000001
281.0,-0.08156792964000001,-0.03359677907,0.1456618617,0.1703264197
282.0,-0.07895346429,-0.042380318545000004,0.14858260785,0.1735390045
283.0,-0.08130163714,-0.047214824515,0.14988932189999998,0.17693974029999998
284.0,-0.083950095985,-0.050223913985,0.1499528276,0.17904391785
285.0,-0.14163302685,-0.040163705815,0.120216262745,0.1961169894
286.0,-0.11213555413,-0.092706725735,0.095435172815,0.1804648904
287.0,-0.121104903196,-0.11538224485000001,0.1997474039,0.46758155365
288.0,-0.3168013969,-0.07379276555000003,0.28568900894,1.0906531397
289.0,0.027951423234999995,0.03108032568,0.080357538275,0.1452900041
290.0,-0.014929768110115,-0.01081759021485,0.17295022995,0.17550996575
291.0,-0.22392176219999999,-0.045393584499999994,0.25158410685,0.5197534984500001
292.0,-0.06106458334999999,0.058398356175000006,0.13158779456,0.23066085935
293.0,-0.15096780255,0.017111980069999998,0.24856874980000002,0.29515149205
294.0,0.1103771646,0.025293129659999997,0.017094714449999993,0.24949549515
295.0,-0.6669599559,0.34639873725000003,0.42202839400000003,1.03926222195
296.0,-0.26047949943000004,-0.35326331125,-0.1015163888,0.61610326485
297.0,0.1169549848,-0.22414304855,0.29498089945,0.75637706345
298.0,-0.12024912235,0.06384789056000001,0.18259691825,0.2315318568
299.0,-0.089601609015,-0.037165226475,0.16752699115,0.19479786685
300.0,-0.085754852395,-0.040349515825,0.18657692715000002,0.20963849795
301.0,-0.08142715961,-0.016365557105,0.16248470295,0.18286535795
302.0,-0.09528963161,-0.04127805769,0.2042056074,0.2300301608
303.0,-0.059317710365,-0.0252170391975,0.18154603349999998,0.1933164455
304.0,-0.098786203695,-0.03981544582,0.17581622385,0.20563933774999998
305.0,-0.0838974332,-0.033472633434999996,0.1803161699,0.2020677717
306.0,-0.08012880571,-0.045330959375,0.18516334145000002,0.20808108815
307.0,-0.060760193399999995,-0.0057253099604999995,0.18794574435,0.2002281895
308.0,-0.06592265008,-0.034879463060000004,0.1878642203,0.2022101213
309.0,-0.09057817715,-0.02947124847,0.18077250995,0.2044912212
310.0,-0.08948034151,-0.04274168288,0.17369383415,0.2000807178
311.0,-0.099519787065,-0.053844518635000005,0.174572219,0.21056814595
312.0,-0.09915484213,-0.047014382935,0.1719746969,0.20411605435
313.0,-0.1047615046,-0.053043860799999995,0.16750506955,0.20458392525
314.0,-0.1113506679,-0.05610574053,0.1668104754,0.20829479885
315.0,-0.10098936562,-0.052050455765,0.1704757493,0.20498453135
316.0,-0.09173077153,-0.0451024117,0.1742681842,0.2020350514
317.0,-0.07978789011500001,-0.046675620175,0.18095018665,0.20326916509999998
318.0,-0.06481211094,-0.042315937105,0.1853317082,0.20085364100000003
319.0,-0.07091089182999999,-0.036365856985,0.18533582955,0.20176677015
320.0,-0.07217503385,-0.03708583727,0.18566223315,0.20262977315000003
321.0,-0.07312443435,-0.036490935405,0.18693297674999998,0.20402112235
322.0,-0.045159907655000005,-0.036987815055,0.18304801380000002,0.1936985147
323.0,-0.17058206639499998,-0.022300581497,0.210123809,0.2947249448
324.0,-0.051330154265,-0.036101444159999996,0.19176103105,0.20189625915
325.0,-0.09460454731500001,-0.022637246575,0.17362237190000002,0.20260696035
326.0,-0.06629992911,-0.06651356639,0.1625648696,0.18815291525
327.0,-0.1731397311,0.007396897629999998,0.10760108631999998,0.2101774847
328.0,-0.1283967192,0.019065432599999994,0.12094494275,0.21984822585
329.0,-0.20795792073,-0.022832089524999998,0.062861320405,0.2375481477
330.0,-0.21074850109999999,0.10071744565000001,0.47320549614999996,0.6637591012999999
331.0,-0.08218539115500001,-1.02505750125,-0.2030176426,1.2935427301
332.0,0.03285995237,-0.031954999947999996,0.21842507249999998,0.22456404619999998
333.0,0.029445023289999997,-0.039096761315,0.20098925395,0.20687031449999999
334.0,-0.02272972299,-0.040731167845,0.47410369609999997,0.47970320099999997
335.0,0.059168196905,-0.10551650498899999,-0.061882915600000005,0.26458595535
336.0,0.0025242424550000007,-0.06531491292,0.20232483795,0.2262666266
337.0,0.17635155054,-0.14637563571,0.16997749084,0.40994317125
338.0,0.196673186985,-0.4218373436,0.5228172749,0.75828017075
339.0,-0.218552194515,-0.45365128104999997,-0.17374811321,0.5627583162500001
340.0,0.1490887281,-0.1605319744,0.2836148251,0.5828537843
341.0,-0.071806330465,-0.024640373055,0.19840730104999998,0.21260846355000002
342.0,-0.039845977045,-0.0343922781,0.20000039255000002,0.2070948528
343.0,-0.03628193551,-0.038028330695,0.19536797244999998,0.20536411505
344.0,-0.06406236079,-0.04476013203,0.19326904509999998,0.20857451929999998
345.0,-0.05035781546,-0.051361077605,0.1944425316,0.207775884
346.0,-0.058697789315,-0.04451671515,0.19633530910000002,0.2098461679
347.0,-0.068666815755,-0.039936518569999996,0.1923937149,0.20853604595
348.0,-0.058152258400000004,-0.04671107569,0.19419010225,0.20806173095
349.0,-0.051999317145,-0.03910457294,0.19867569699999998,0.20906158484999998
350.0,-0.055968129065,-0.03938804804,0.1967047003,0.20830610635
351.0,-0.054089132090000006,-0.037934306200000004,0.19623813525,0.207158767
352.0,-0.057298295794999995,-0.0374277834,0.1981756854,0.20967084445
353.0,-0.063483791965,-0.037863469895,0.19649264119999998,0.209946952
354.0,-0.06265317267500001,-0.035641648045,0.1977454,0.21048239024999998
355.0,-0.060742192415,-0.02904726635,0.1996229142,0.2106833544
356.0,-0.072510824605,-0.034133134435000004,0.1943233169,0.2102815608
357.0,-0.10269542751499999,-0.040488582085,0.18307951325,0.21542412505
358.0,-0.07205065604,-0.044257216955,0.18739718845,0.20803407070000002
359.0,-0.081364790705,-0.0636611626,0.19616251765,0.22180909215
360.0,-0.099191311005,-0.04838276261,0.15944191885,0.19762635335
361.0,-0.077747219535,-0.05101206644,0.18173506125,0.20430307715
362.0,-0.07451725270000001,-0.054156400555,0.17854727085,0.20112268179999998
363.0,-0.09186801594499999,-0.0582428382,0.1744377532,0.20598765685
364.0,-0.08598807023999999,-0.061292461065,0.17424541275,0.2037818173
365.0,-0.12093165180500001,-0.066283213075,0.21419463095000002,0.2549100982
366.0,-0.1047938002,0.0318288243685,0.120907406665,0.1981221689
367.0,-0.09513343804999999,-0.07665036737725,0.2415229122,0.27768115155
368.0,-0.02607146438,-0.040288564995,0.1414105684905,0.19029861362
369.0,-0.052101237460000005,-0.043297111415000006,0.2176319558,0.23362990095000002
370.0,-0.066964974487,-0.00370441542745,0.14159440234999998,0.1643057556
371.0,-0.087559185005,-0.054816336800000004,0.22050836235,0.24886702570000002
372.0,-0.03714901703,-0.02574604306,0.20214038265,0.2071511346
373.0,-0.061374398974999994,-0.0150925508945,0.19671400605,0.20743893715
374.0,-0.048421566045,-0.026910802140000002,0.19880785915,0.20673963565
375.0,-0.052104830015,-0.026611196875,0.19889345130000002,0.20733279465
376.0,-0.053382888435,-0.028778326695000002,0.2001976818,0.2091845256
377.0,-0.07125405162500001,-0.02194068896,0.1943570497,0.20831256609999999
378.0,-0.082305794845,-0.021057972100000003,0.18979025885,0.20795423865
379.0,-0.08184918714,-0.02742253031,0.19028204205,0.20897956299999998
380.0,-0.07947094414,-0.028761254265,0.19029489855,0.2082200415
381.0,-0.07497474265000001,-0.031488064365,0.192060496,0.20859395855
382.0,-0.07606028249999999,-0.03944125236,0.19129512815,0.2096210919
383.0,-0.06781886571000001,-0.04016389911,0.1931717761,0.20863705230000001
384.0,-0.072733790125,-0.034328001405,0.19286250845000003,0.20903070355
385.0,-0.08880533059000001,-0.048646189560000004,0.20221933009999998,0.2284184789
386.0,-0.037838814499999984,-0.15675409539,0.16898267504,0.388738207
387.0,-0.026490416439999998,-0.06235923847,0.20199548985,0.2136327193
388.0,-0.13030835008,-0.043248505335,0.15940267954999998,0.21710848250000003
389.0,-0.08200787713999999,-0.04251515892,0.1857875301,0.20840218235000002
390.0,-0.047318712895,-0.048745711845,0.19930214175,0.21185614149999998
391.0,-0.06716085225,-0.048173106275,0.1867658868,0.20424311715
392.0,-0.06653517207000001,-0.04481562447,0.18531748805,0.20193993685
393.0,-0.064525495155,-0.045355013175,0.18445416385000002,0.20061590205
394.0,-0.071817478825,-0.039157349255,0.1880367725,0.2056351727
395.0,-0.063666344055,-0.046865721375,0.18950855249999998,0.20534105619999998
396.0,-0.058004044350000006,-0.048336860679999996,0.1909697775,0.20535688575
397.0,-0.055859359195,-0.0438951468,0.1911950582,0.2040179593
398.0,-0.05679947138,-0.04060066144,0.1924829165,0.2047541619
399.0,-0.057538875295,-0.038568376625,0.19260111284999998,0.20467978944999998
400.0,-0.062638854225,-0.042488991455,0.19098291299999998,0.20543663429999998
401.0,-0.07018303871,-0.045954487625,0.18834752885,0.2062743001
402.0,-0.06698538893,-0.04157847207,0.1887806541,0.20460078205
403.0,-0.084303630935,-0.04758277439,0.18155393295,0.20577614119999998
404.0,-0.08291148159,-0.04896469875,0.18109006485,0.205383357
405.0,-0.09132183564,-0.048325514975,0.17997592865,0.2079222899
406.0,-0.070306346545,-0.042463675379999996,0.18180699575,0.20179076855
407.0,-0.100579505525,-0.049832864275,0.17564859025000001,0.21028436760000002
408.0,-0.087197108625,-0.06520642735,0.17816952525,0.210950236
409.0,-0.090388677035,-0.04744869677,0.1792417043,0.20653414395
410.0,-0.087081690045,-0.048127446445,0.17934576824999998,0.20579872585
411.0,-0.08779606653,-0.05021766599,0.17864269235000002,0.2056332201
412.0,-0.07829389820999999,-0.063203197785,0.186139695,0.21423003159999998
413.0,-0.052141505649999996,-0.0228441908085,0.192241684,0.20452442585
414.0,-0.09739941764000001,-0.027178654490000002,0.17233237234999998,0.1999694723
415.0,-0.0840341866,-0.050707223055,0.18314557004999998,0.20800869385
416.0,-0.092276667785,-0.04829875628,0.18250234545,0.21163139339999998
417.0,-0.096139536685,-0.04594761025,0.1731164949,0.20332142285
418.0,-0.09028731370500001,-0.056437985975,0.17898460645,0.2082858582
419.0,-0.08197376132,-0.05505162291,0.1820781827,0.20716348089999997
420.0,-0.07886632975499999,-0.050628544484999996,0.1841677256,0.20664870275
421.0,-0.07521673232500001,-0.048229323495000004,0.1866332009,0.2069226061
422.0,-0.070386836605,-0.050875738744999996,0.18826690795,0.20733391475000001
423.0,-0.07283086058,-0.05031726001,0.18571176225,0.2057344895
424.0,-0.075199102725,-0.049552628205000004,0.18603335685,0.20669181645
425.0,-0.08001609421,-0.047833497205,0.18444767925,0.2066681158
426.0,-0.075710038985,-0.051315082655,0.18600615375000001,0.207277933
427.0,-0.077581114455,-0.045075258874999996,0.18562802415000001,0.20618811204999998
428.0,-0.07339781535,-0.046536672985,0.18875375989999998,0.2078086469
429.0,-0.07231636904,-0.04608541653,0.1886174725,0.207208
430.0,-0.0717984574,-0.04356130736,0.18872856300000002,0.2065815237
431.0,-0.06512758773,-0.042163009845,0.19271876615,0.20776702535
432.0,-0.06791408804,-0.04484655279,0.19234521189999998,0.20886544395
433.0,-0.066513004665,-0.05001843758,0.1923120866,0.20955594995
434.0,-0.06547174237,-0.04914621265,0.19029741979999998,0.20716131734999998
435.0,-0.068168547245,-0.049223499645,0.1894930834,0.20735092075
436.0,-0.07520717881,-0.04890945833,0.1877375483,0.20811105615
437.0,-0.07977138087499999,-0.044336396104999995,0.1870439502,0.20813126685
438.0,-0.0777264875,-0.045993191064999994,0.1865758758,0.20731083555000002
439.0,-0.073617413445,-0.04777702167,0.18714567999999998,0.20670708455
440.0,-0.069322933,-0.05016398879,0.1918646771,0.21009334275
441.0,-0.065534948385,-0.05149423492,0.19211444365,0.20944190745000002
442.0,-0.06212183524,-0.047530754450000004,0.1938743972,0.2090818552
443.0,-0.069142852545,-0.04574267099,0.19257189065,0.2096814455
444.0,-0.07081933255,-0.04730800267,0.19021406065000002,0.20842276225
445.0,-0.07471319464500001,-0.046164573730000005,0.1894147022,0.20878838875
446.0,-0.07559007875,-0.049176217960000004,0.1886369778,0.20909400690000002
447.0,-0.073794145865,-0.046763765265,0.18927708385,0.20847667825
448.0,-0.07443003238000001,-0.04924026089,0.1893944536,0.20937334795
449.0,-0.0692050457,-0.048766549555,0.19128368745000002,0.20920347649999999
450.0,-0.074337040605,-0.04884335571,0.19102423975,0.21072098635
451.0,-0.071276729895,-0.04702332956,0.19121177805,0.20942836315000002
452.0,-0.07209763159499999,-0.04148659615,0.19192731764999998,0.20918228785
453.0,-0.07031163152,-0.0436004576,0.19382881435,0.21075114890000002
454.0,-0.068814744875,-0.0424768992,0.19395635975,0.21014500954999998
455.0,-0.068084792885,-0.044082431549999995,0.19253102995,0.20891933445
456.0,-0.068308302625,-0.047549149085,0.19378738545,0.21092139845000002
457.0,-0.06933044522500001,-0.047087923355,0.19426650290000003,0.21157682595
458.0,-0.07083257079,-0.04296179309,0.1929459889,0.20998365405
459.0,-0.06767103295,-0.044335587245,0.1934318763,0.20967377534999998
460.0,-0.07217952363999999,-0.041839158550000005,0.1927264799,0.21001183745000002
461.0,-0.066083517625,-0.044312786815,0.1952018723,0.2107951476
462.0,-0.0699907396,-0.043563367905,0.19351705745,0.21035578705
463.0,-0.071100643785,-0.046367417445,0.1911113174,0.2091241895
464.0,-0.075342860915,-0.05006290828,0.18976231545,0.21022608469999998
465.0,-0.08370703018,-0.047102315935,0.18696374845000002,0.21019972915000001
466.0,-0.07360900445499999,-0.043732642865000004,0.1930051307,0.2113748943
467.0,-0.066369016325,-0.043641765275,0.1954944134,0.2111911144
468.0,-0.06999268344000001,-0.044111594105,0.19351629334999998,0.21055052294999999
469.0,-0.08081669072,-0.044003953705,0.18856299125,0.20983842645
470.0,-0.08029010606,-0.04446706383,0.1881347194,0.20932926475
471.0,-0.08460785609,-0.044628891239999996,0.18689043465,0.2100112472
472.0,-0.078387686855,-0.04727686045,0.18994109165,0.21086081410000002
473.0,-0.076418626875,-0.042447304915,0.19080012945000002,0.20987483145000002
474.0,-0.079909278165,-0.04559708358,0.18989317545,0.21102647345
475.0,-0.07754595807,-0.04667872831,0.1897413168,0.21024039695000002
476.0,-0.07512342459999999,-0.045723862895,0.1905511179,0.2098667088
477.0,-0.07420844059500001,-0.045247144645,0.19013330315,0.20905814104999998
478.0,-0.072365896775,-0.04466413148,0.19051814825000002,0.2086461497
479.0,-0.069418920415,-0.04760429973,0.19123827464999998,0.20900192509999999
480.0,-0.059545875235,-0.047686502595,0.19213647015000002,0.20676584575
481.0,-0.074459163565,-0.03834215823,0.1919814767,0.21063673295000002
482.0,-0.08013493674,-0.0422187211,0.18800400174999998,0.2092152176
483.0,-0.06708545064,-0.041112363959999995,0.19358192685,0.20909202455
484.0,-0.07754288267500001,-0.03864441396,0.1881625065,0.2072319425
485.0,-0.073248311905,-0.046006758405,0.1918864665,0.2121921684
486.0,-0.07615395624,-0.04768675925,0.18403166145,0.20612988594999998
487.0,-0.0920056831,-0.012275315824999999,0.19131319224999999,0.217232067
488.0,-0.059097078979999995,-0.04619658384,0.1904531776,0.20577139925
489.0,-0.08874914002,-0.03415350971,0.19438460515,0.22342966605
490.0,0.02205828313,-0.03286809691,0.2261119196,0.2295506041
491.0,-0.022133768449999994,-0.041387204895,0.2143246366,0.3310614689
492.0,-0.1132995042,-0.070374232265,0.17650408555,0.24517209525
493.0,-0.130290040905,-0.041349730795000005,0.14706906819999999,0.2079819289
494.0,-0.106675213215,-0.032663444525,0.21324463565000001,0.24838099995000001
495.0,-0.4659044398,-0.40198773545,-0.11807316457900001,0.6408485847500001
496.0,-0.2763293717,-0.79107584595,0.29400492094999997,1.0512276044
497.0,-0.066723422855,-0.20467786305,-0.07977367775000001,0.5905406958
498.0,0.009221977885000003,-0.45125374485,0.013242852049999976,0.95063161695
499.0,0.029210573259999997,-0.28458817545,0.2324815181,0.37867101150000004
500.0,-0.142764167,-0.043305861089999995,0.13856981225,0.20565172855
501.0,-0.071122886472,-0.065674256485,0.14121221115,0.1852580697
502.0,-0.108501367,-0.057148166599999994,0.1363503937,0.1833875328
503.0,-0.09825411194,-0.059226307365,0.141578287,0.18227001165
504.0,-0.09953318535,-0.06292623095,0.14067368209999997,0.1834685158
505.0,-0.09521560963,-0.053878924515,0.14718371455,0.183422833
506.0,-0.092644052585,-0.052170883109999996,0.1502776213,0.184100009
507.0,-0.09148180443000001,-0.05145055419,0.15025709394999998,0.18328730145
508.0,-0.09374482184999999,-0.05307382904,0.1496517621,0.18440553799999998
509.0,-0.0948199245,-0.05171193814,0.14911789279999998,0.1841242336
510.0,-0.09632632136,-0.052358660845,0.14600797370000002,0.18261140495
511.0,-0.099665115215,-0.055475345344999996,0.1442924928,0.183939083
512.0,-0.098948758735,-0.057260061065,0.14450028204999998,0.18427291985
513.0,-0.100858281865,-0.05551897777,0.14443823444999998,0.1847130796
514.0,-0.09694268962,-0.058061290215000005,0.1443862446,0.18335097505
515.0,-0.097310839475,-0.058030660314999996,0.14479338009999998,0.1838610216
516.0,-0.093671565525,-0.059137828244999996,0.1468046868,0.18391362835
517.0,-0.09493113581,-0.05838995424,0.14654608600000002,0.18411638615
518.0,-0.09681736305,-0.05546219088,0.14553328975000002,0.18338868305
519.0,-0.09524130387499999,-0.057018513014999994,0.14799921655,0.1850151173
520.0,-0.09556487848,-0.057444551834999996,0.1467801983,0.18433076245
521.0,-0.097672080995,-0.060104434309999996,0.14495401745,0.184835649
522.0,-0.101258380945,-0.054806640135,0.14466671255,0.18491293414999999
523.0,-0.094182050995,-0.051733787084999996,0.14891887380000002,0.18373436645000002
524.0,-0.09265348016,-0.05209578137,0.15006080254999998,0.18396503785
525.0,-0.09965382263,-0.05260468979,0.14432840445,0.18313916395000002
526.0,-0.1065793015,-0.05029422169,0.14026437165,0.1833317148
527.0,-0.1040144297,-0.04885021372,0.14253889555,0.18310082195
528.0,-0.1055110025,-0.04938082829,0.14145508675000001,0.18326134854999998
529.0,-0.108348969,-0.050635069655,0.1399086778,0.18408298495
530.0,-0.1066081722,-0.055606200495,0.13957227065,0.1842244829
531.0,-0.10563551600000001,-0.058417049,0.13886731055,0.1840228665
532.0,-0.10275257955,-0.06150960950499999,0.1396185187,0.18396645475
533.0,-0.10286088695000001,-0.06235908881,0.13978353405,0.1844293609
534.0,-0.10563663105,-0.06191198762,0.13851173655,0.18488285365
535.0,-0.1061634496,-0.060193102265,0.1394717696,0.18533513224999998
536.0,-0.10529899205000001,-0.059199675185,0.1397178994,0.18471214005
537.0,-0.10345673255,-0.063212113235,0.13967925875,0.18496742859999998
538.0,-0.0994675301,-0.063226075615,0.14222837994999998,0.18472103815000002
539.0,-0.10139037495,-0.055632897050000005,0.1451041378,0.18555387335
540.0,-0.10029880635,-0.058178476535,0.1436365101,0.18459905955
541.0,-0.098898861205,-0.059140812485,0.14484164865,0.1851103788
542.0,-0.097692064245,-0.053721178815,0.1450129057,0.1829205843
543.0,-0.09720169273000001,-0.051955199859999995,0.14624993095,0.18315108925
544.0,-0.092108545765,-0.055088023985,0.150803666,0.18509853765
545.0,-0.09604228310999999,-0.054389088655,0.14753808829999998,0.1842635088
546.0,-0.096100255335,-0.053696243335000005,0.14742791145,0.18403139315
547.0,-0.1000051203,-0.054517904645000004,0.145543452,0.1848189505
548.0,-0.10142112175000001,-0.060030598635,0.14387560825,0.18599692295
549.0,-0.06833696509000001,-0.041268684285,0.14990196735,0.17264825145
550.0,-0.122456448735,-0.046047390009999994,0.1447651755,0.196561492
551.0,-0.09850289398,-0.05315846976,0.1498913507,0.1875861117
552.0,-0.09857497016,-0.04718754616,0.14839533045,0.18430722425
553.0,-0.09341680255500001,-0.056585290669999996,0.15221708025000003,0.1873703785
554.0,-0.093845386375,-0.054988888145,0.15089229059999998,0.18601349725
555.0,-0.09587379073,-0.057189954050000005,0.1494546747,0.18655420675
556.0,-0.09735342648,-0.05496815004,0.14876656,0.1861009293
557.0,-0.104000754655,-0.05490371212,0.1439762525,0.185986293
558.0,-0.088912986205,-0.060243231055,0.15101561759999999,0.1855413463
559.0,-0.09968659134999999,-0.04947547621,0.15179052715,0.188428734
560.0,-0.09636714626,-0.0467355728,0.151335786,0.1869583488
561.0,-0.095436248435,-0.051186398815000006,0.1503202495,0.18771606125
562.0,-0.114872224095,-0.04874828968,0.14418804540000002,0.19335458725
563.0,-0.071938176184,-0.045947724934999996,0.15599743729999999,0.19747732325
564.0,-0.08607097891,-0.072027127175,0.15786608289999998,0.19468856774999999
565.0,-0.095039261285,-0.044123993185,0.15558727355000002,0.18792076735
566.0,-0.08368437798,-0.049369467465,0.15900041885,0.18633936515
567.0,-0.08129890851499999,-0.046805478585000004,0.15947479334999998,0.18505669815
568.0,-0.09328788327,-0.04218089773,0.15438450534999998,0.18529093955
569.0,-0.098794423045,-0.043736670165,0.15031934905,0.18513172765000002
570.0,-0.09675297189000001,-0.045838699164999996,0.1525999508,0.18641295775
571.0,-0.09725753431,-0.04544669228,0.15288238715,0.18680909675000001
572.0,-0.09622663545,-0.05112287125,0.15048304434999998,0.1858067852
573.0,-0.099366768485,-0.050434483005,0.14795841939999999,0.1852377443
574.0,-0.099728494605,-0.050915070034999996,0.1469659254,0.18476796355000003
575.0,-0.09972934953,-0.051646951705,0.1492683926,0.18680664905
576.0,-0.09970740088499999,-0.050433328459999996,0.1484902488,0.1858633938
577.0,-0.101139610095,-0.052253828295,0.14749327795,0.1863540388
578.0,-0.093689354825,-0.05402237595,0.14953053789999998,0.18473227215
579.0,-0.102298896595,-0.054766560724999996,0.1457624804,0.186447117
580.0,-0.089806466815,-0.05466947278,0.15886455160000001,0.1953301255
581.0,-0.108239432985,-0.05345214624,0.14232081155,0.1879069768
582.0,-0.09189531823,-0.043043065840000005,0.15357991334999999,0.1853002421
583.0,-0.22009650614,-0.08067451502499999,0.11814388326,0.28419042925
584.0,0.262112675,-0.21361076904999998,0.2557701752,0.44018420115
585.0,-0.007545087700000008,-0.22795948440000002,-0.44180563035000003,0.58015932165
586.0,1.43540960805,-0.530794433754,-0.62789670578,2.11404818165
587.0,1.2116464262,-0.59416723865,0.35739661849999993,2.573937433
588.0,0.014462073710000002,-0.21941212599999999,0.35914467005,0.7279163749
589.0,1.6365593330000001,-0.4028055441,-0.73152908775,1.923030454
590.0,0.539773744875,0.0246508146,-0.10570960516349999,0.74568207495
591.0,0.36649216479999996,-0.141911955735,-0.0706950395,1.393813728
592.0,-1.08357635039,-0.13270785488,0.24913000115,1.2618617266499998
593.0,0.23933225364500002,-0.054095975835,-0.16166329105,0.6519412114
594.0,-0.4740299707,-0.06809560714,0.5209918729,0.7076538395
595.0,0.81549041295,-0.151303963845,0.45720431875,1.25391923885
596.0,-0.5083301053,-0.8527057599,-1.35298035335,1.939753832
597.0,-0.7214223316,-1.03545285015,-0.3793251831,1.835849772
598.0,0.684069089435,0.08976444389999999,0.46520682285000003,1.33004067
599.0,0.38863179265000003,-0.38710232445000003,-0.48103772285,0.75892103
600.0,0.5662711238,-0.9760295398500001,-0.61960848375,1.7049166625
601.0,0.26887513134999996,-0.77736725485,-0.6345592697,1.684955532
602.0,0.4169068095065,-0.4356820503,-0.83128350945,1.0549239215
603.0,0.47573465755,-1.31836149965,-0.20431834929999998,1.5158271724999999
604.0,0.67765087175,-0.15655356050000002,-1.1594836765499998,1.43162223615
605.0,1.358816203,-1.1024473824,-0.86678318695,2.0225890825
606.0,0.39697364650000005,-0.5691557871999999,-0.997614398124,1.7071080541
607.0,0.5327343334,-0.8678652258,-2.627519241,2.963094041
608.0,0.5317297210049999,-0.53167614065,-0.5111803479499999,1.3463421536
609.0,0.2387396652,-0.087709859,-0.17347183655000004,0.9971375747
610.0,0.43675582255,-0.95565322585,-1.7769049588999999,2.099375193
611.0,-0.0567855233,-0.1090235445465,0.038412132769999996,0.25027950995
612.0,0.0326347592,0.07719758571499999,0.274109548895,0.61379753095
613.0,1.8150842164000003,-0.40449287650000004,-0.29091903404999997,2.4100873451
614.0,2.1899672735,-0.8499817171499999,1.04854276945,2.7150365069999998
615.0,1.4130076399,-0.49612419760000004,-1.4900319954999999,2.2523487915000002
616.0,0.7181966023499999,-0.009066763500000005,-0.49977381858,0.94998004575
617.0,-0.08214031585,-0.11285378881000001,0.0169544609335,0.37680419225
618.0,0.4212562393,-0.114801711985,0.09092076597,0.5152341066
619.0,-0.61551833005,-0.11269882917499999,0.07374596069999999,0.71571408295
620.0,-0.6917574368999999,-0.6366003911,-0.2861884035,1.0609229746
621.0,-0.52777029705,-0.6791804194,0.031442606449999966,1.0401914605
622.0,0.62690746495,0.7741831138499999,-0.07981502000000001,1.122993091
623.0,-0.215405031315,0.26238444874,0.3626550947,0.6142656529999999
624.0,-0.32453704215,-0.061588953030000004,-0.07008699115,0.39779461395
625.0,-0.005860336999999993,-0.34433140325,0.10429619883999999,0.7084467929
626.0,0.17766262049999998,-0.75066443485,0.31293756975,1.32971143635
627.0,-0.9418001600499999,0.24765544880385,-0.19667586615,1.02721018165
628.0,-0.026894091245,-0.04743006563499999,0.24388944170000001,0.2774336259
629.0,-0.250932986,-0.10720885555500001,0.07533114673899999,0.43068742405
630.0,-0.05990172519999999,-0.074002563245,0.14737423245,0.33643975865
631.0,-0.13066881685,-0.04012724529,0.16214755205,0.2445700717
632.0,-0.081856280575,-0.018293570774999997,0.1762879434,0.19752543649999998
633.0,-0.09754739815999999,-0.0451653056,0.1657250602,0.1999853156
634.0,-0.10657968488,-0.059021815155000004,0.16100992025,0.208204676
635.0,-0.0484966039645,-0.069352209565,0.17026079854999998,0.1982442278
636.0,-0.114459202905,-0.034509857216499996,0.1724173066,0.2149800533
637.0,-0.068947740375,-0.05509102312,0.17536294505,0.196623019
638.0,-0.088756227825,-0.057673437075,0.16966189469999998,0.2017657638
639.0,-0.07390263343,-0.054351452800000005,0.17264530015000001,0.20455412095
640.0,-0.08615839885,-0.068447102855,0.18618828565,0.21634592554999998
641.0,-0.08097310102,-0.05276580877,0.14516872506,0.19100688059999998
642.0,-0.06829781959,-0.055525168495,0.18014113715000002,0.200605625
643.0,-0.07884465275,-0.04928407993,0.17429367675000002,0.19758285479999999
644.0,-0.092726873975,-0.052336609555,0.16890509925,0.1996686881
645.0,-0.07761797405000001,-0.05793651644,0.1727347266,0.1982826592
646.0,-0.079710172065,-0.060203192695000005,0.17051601970000002,0.1976725342
647.0,-0.099994298635,-0.06415506992,0.16320574384999997,0.2039951256
648.0,-0.055161843815,-0.065990213305,0.17634580979999998,0.197232491
649.0,-0.084607720555,-0.061035568109999994,0.16969216915000002,0.19921043605
650.0,-0.078513447765,-0.069235426885,0.16970027724999998,0.19954138725
651.0,-0.08509908541,-0.06816023132,0.1645696741,0.19747792645
652.0,-0.089922767875,-0.06621300237,0.16428076975,0.1986482443
653.0,-0.08462066615,-0.063546115885,0.16665121724999998,0.19749004339999998
654.0,-0.07012868692,-0.066420618695,0.17323564935,0.1984357201
655.0,-0.066831476985,-0.06633263826,0.1752112731,0.19894427115000002
656.0,-0.06653431842,-0.065079293585,0.17448210555,0.1977658739
657.0,-0.07248219110500001,-0.061441935155,0.17456192305,0.19880095920000002
658.0,-0.08132149212,-0.055142788979999996,0.17250081385,0.19854577839999998
659.0,-0.07848382525,-0.056644285579999995,0.17155182959999998,0.19701110630000002
660.0,-0.074761579135,-0.062227951025000006,0.1722599823,0.1978446882
661.0,-0.08487274687999999,-0.061290117054999996,0.16777031145,0.1977635007
662.0,-0.07935437280499999,-0.062506524955,0.168903359,0.1968072429
663.0,-0.07598835745999999,-0.066890492175,0.170275769,0.19812824465
664.0,-0.081104480085,-0.067464495555,0.16721044535000001,0.1977178369
665.0,-0.076096112765,-0.06594200950000001,0.17014770655,0.19774388669999998
666.0,-0.07799326427,-0.06110265898,0.1718598926,0.1983741588
667.0,-0.081541229155,-0.05936609158,0.17176135180000002,0.19921470060000002
668.0,-0.08689025092,-0.06160103707,0.1673916257,0.198405484
669.0,-0.08570085336,-0.056234586215,0.17028245409999998,0.1987569491
670.0,-0.08972690355,-0.057824854545,0.16843063405,0.19946666665
671.0,-0.078283505215,-0.06596436592,0.1721741497,0.2003273473
672.0,-0.08170505554,-0.063366222005,0.17078475345,0.19967965710000002
673.0,-0.078366302735,-0.06420586484999999,0.1708223716,0.19861494810000002
674.0,-0.080484925235,-0.056618303860000004,0.17240859149999999,0.19873256425
675.0,-0.062105879899999994,-0.03111107787,0.1766202388,0.1913298423
676.0,-0.1080907385,-0.069991322025,0.15476271305,0.2014327524
677.0,-0.06840174387,-0.06438350612499999,0.1799248001,0.2038752167
678.0,-0.13404207472000002,-0.06783162039,0.14492550734999998,0.21178948315
679.0,-0.08323746438,-0.057216565015,0.17295581934999998,0.20061921794999998
680.0,-0.081819333641,-0.0440179756675,0.16678733089999997,0.2131245934
681.0,-0.167565647945,-0.0823367118,0.177843577,0.26369878204999997
682.0,-0.12995722545,-0.0350441002865,0.1437602911,0.2045254039
683.0,-0.053053510740000004,-0.047285759975,0.18347990349999999,0.23430162775000002
684.0,-0.11025338843999999,-0.04117007452,0.1684233073,0.20754764715000001
685.0,-0.07274607698999999,-0.08132231811999999,0.1699918221,0.20788280604999998
686.0,-0.111724507395,-0.032939415044999996,0.1718891755,0.22109145055
687.0,-0.05482472012,-0.065245245055,0.18419710230000003,0.20359121275
688.0,-0.111086730065,-0.045606043575000005,0.16442757365,0.20384654655
689.0,-0.076308122325,-0.045522785285,0.17768470409999998,0.2010834024
690.0,-0.12656086875,-0.03388744785,0.1636836529,0.21085840909999998
691.0,-0.040152636785,-0.07334346052,0.18128609275000002,0.2013412919
692.0,-0.11393857024,-0.05311887939,0.16977351065000001,0.2139392014
693.0,-0.085426222185,-0.05951907358,0.1742564871,0.2033736143
694.0,-0.11587225703000001,-0.033127870555,0.16668741015,0.2086330801
695.0,-0.07287450384000001,-0.04852913357500001,0.19319905539999999,0.2421433878
696.0,-0.13469774649,-0.07418938931499999,0.1402187925,0.22080943445
697.0,-0.028645534365,-0.09291833922,0.1933009511,0.21669791365000002
698.0,-0.10154834052,-0.04919470061,0.1665139302,0.20123802455
699.0,-0.083737744225,-0.046309249745,0.17091707955000002,0.20447018020000002
700.0,-0.074503781305,-0.06674558019,0.1802611881,0.20642015435
701.0,-0.08306087251,-0.05906201791,0.1716517462,0.20137583539999998
702.0,-0.11608430565,-0.046814495654999996,0.16432224955000002,0.20706119569999998
703.0,-0.07075656512,-0.05353443818,0.17732466335000002,0.20181760795
704.0,-0.09557807635,-0.047702427894999996,0.16914224625,0.2001168827
705.0,-0.09226468573999999,-0.05239150509,0.16973232594999998,0.20017023685000002
706.0,-0.08743925747,-0.055106199470000006,0.17009679075,0.19905848235
707.0,-0.077577743,-0.05761399081,0.17524575305,0.20017003615
708.0,-0.078886796555,-0.059084730885000006,0.17346973045,0.1996974507
709.0,-0.08683567747,-0.060349322125,0.17188165335,0.20182912600000003
710.0,-0.06881098469,-0.062912394775,0.17500694890000001,0.19986912925
711.0,-0.09324030753500001,-0.05156234679,0.1724565348,0.2097820044
712.0,-0.05826203284999999,-0.07000412864,0.17440053725,0.19719140865
713.0,-0.08346336275999999,-0.06325985849,0.1722911419,0.20168559554999999
714.0,-0.079376097965,-0.062806937405,0.17087827989999999,0.1986070447
715.0,-0.08391967416000001,-0.06570399738999999,0.17009999604999998,0.20073288890000002
716.0,-0.08130516908,-0.064432898505,0.171414175,0.20037426995
717.0,-0.08090050903,-0.06127571711,0.17203103365,0.19975842924999998
718.0,-0.07894242407,-0.06315935634,0.1721948211,0.19970648845
719.0,-0.07315566289,-0.06740872737,0.1734094615,0.19992306650000002
720.0,-0.078354043165,-0.062395542775,0.17308906545,0.20001082645
721.0,-0.08001065694000001,-0.061161016570000004,0.17269822265,0.1999196695
722.0,-0.078712551825,-0.06116458485,0.1750396682,0.20143767075000002
723.0,-0.07746197578,-0.061074036134999996,0.17396927834999998,0.19999472745
724.0,-0.07637948915500001,-0.06148990616,0.17386268075,0.1996177683
725.0,-0.077530284015,-0.05532860079,0.17684521985,0.2009299715
726.0,-0.075846401425,-0.053146141504999994,0.1772706312,0.20001583735
727.0,-0.06878126821,-0.058187092504999996,0.17917264659999999,0.20057516060000002
728.0,-0.062599768835,-0.06372321537,0.17993571730000002,0.2009689539
729.0,-0.06963461771500001,-0.06312195955,0.1776531752,0.201005352
730.0,-0.06386566552,-0.060508781819999996,0.18312157974999999,0.2032186887
731.0,-0.06550701335,-0.053931269795,0.18180237710000002,0.20066593825
732.0,-0.07170114360999999,-0.05925287755,0.17824920849999998,0.2010678596
733.0,-0.07369164134,-0.060820776695,0.1769407598,0.2011005684
734.0,-0.074651233915,-0.06389670838,0.17539705145,0.20105274655
735.0,-0.07767303173,-0.07040342551,0.1732995987,0.2025401024
736.0,-0.077169179915,-0.06347743926499999,0.17382392575,0.20052072059999998
737.0,-0.078878489125,-0.061085478025,0.17522516405,0.2016665154
738.0,-0.07770188861999999,-0.0650117595,0.17447576215,0.20179738245
739.0,-0.075439437985,-0.066179035205,0.1770541706,0.20353090905
740.0,-0.084224989955,-0.06167302613,0.17494991035000002,0.2043989866
741.0,-0.07663873438,-0.055288867209999995,0.17572863719999998,0.19959237905
742.0,-0.073035704655,-0.05053219669,0.1800665897,0.20077911355
743.0,-0.07092303049,-0.04577361159,0.18444281434999998,0.20287500845
744.0,-0.061121886645,-0.045174274195,0.1853904172,0.2004131171
745.0,-0.07764039191,-0.06852803533,0.1779456941,0.20646681695000002
746.0,-0.06844450972999999,-0.049018054255,0.1707686148,0.19141252115000001
747.0,-0.069883603725,-0.06621125641,0.17112310395000002,0.196365514
748.0,-0.06425524063,-0.06875215731,0.17338981055000002,0.19728259595
749.0,-0.06853656456,-0.066318606635,0.17166332335,0.19637994809999998
750.0,-0.076287228495,-0.05933771383,0.1715014787,0.1985943333
751.0,-0.083774894475,-0.05451154336,0.16969870775,0.19697666315
752.0,-0.073834858245,-0.05607671208,0.1768026201,0.19970563075
753.0,-0.06933850313,-0.059600231635,0.17855547535,0.20060495835
754.0,-0.072002572965,-0.056590654399999996,0.17664751499999998,0.1989794116
755.0,-0.07667288828499999,-0.05577532776,0.17759708125,0.20132783115
756.0,-0.07892558456,-0.05919676839,0.1749284901,0.20084274435
757.0,-0.084497904775,-0.059008775155,0.1715512435,0.2001519087
758.0,-0.08796312858,-0.05983128354,0.16990962780000002,0.2005592022
759.0,-0.082169950575,-0.058727832945,0.1719501805,0.1994586273
760.0,-0.08249292841,-0.060713882655,0.1707971397,0.19917438864999998
761.0,-0.08309725767000001,-0.060549655205,0.170046663,0.19871727955000001
762.0,-0.08077731421,-0.06563285895,0.1719503527,0.20100611055
763.0,-0.084852709695,-0.059116301165,0.1703391734,0.19931073929999998
764.0,-0.083105633885,-0.06152470856,0.17205370535,0.20078319495000002
765.0,-0.07811177425999999,-0.061884897555,0.1727477329,0.1994359478
766.0,-0.081245727835,-0.058524213729999996,0.17381673305,0.200597346
767.0,-0.077363614785,-0.061435732015,0.17353380065000001,0.1996889121
768.0,-0.073034108875,-0.059647416009999996,0.17661550004999998,0.20023000515
769.0,-0.08034496836999999,-0.062061109239999995,0.17295650455,0.20058772465
770.0,-0.08268814757500001,-0.06352140769,0.17167988935,0.20086913709999998
771.0,-0.083841702455,-0.062801103065,0.1718093745,0.2012655317
772.0,-0.086007198915,-0.058443126825,0.17088637155,0.2000381773
773.0,-0.083171449405,-0.060730358475,0.1715394693,0.20010677500000001
774.0,-0.08666297885,-0.06552444535999999,0.17055470909999998,0.20222686229999998
775.0,-0.080031510445,-0.067286826105,0.1705971422,0.20010028154999998
776.0,-0.07328714862999999,-0.065143225655,0.17545359365000002,0.20101307740000002
777.0,-0.080515161395,-0.059058567835,0.17665523955,0.20295331545
778.0,-0.08108567202,-0.057417639879999996,0.17553316155,0.20170988275
779.0,-0.09626674355,-0.06531744353,0.171414049,0.207856674
780.0,-0.061959368255,-0.059549531825,0.1807663651,0.20214183025
781.0,-0.09180284261999999,-0.06831148974500001,0.16483842939999999,0.20285296855
782.0,-0.11790218445,-0.071140291105,0.15927145580000002,0.2107482993
783.0,-0.06528052012,-0.055342591,0.16811975294999998,0.18935414579999998
784.0,-0.080622366615,-0.065626715825,0.17248469375,0.20141495450000002
785.0,-0.07434121718,-0.065917531215,0.17219510500000001,0.19891686245
786.0,-0.074732754105,-0.07123693545,0.17314767520000002,0.20159770735
787.0,-0.07675611405,-0.074557766085,0.17044178645,0.2012560157
788.0,-0.078984294615,-0.07263996298,0.17005675180000002,0.20108445484999998
789.0,-0.07431910809,-0.08067923407,0.16931333955,0.20174913900000002
790.0,-0.07063540324,-0.08276576386500001,0.16971202535000002,0.20160067995
791.0,-0.076030976955,-0.076255824045,0.17027913895,0.20153269359999998
792.0,-0.075418986765,-0.07211777159499999,0.17155281255,0.20081733505
793.0,-0.077202767135,-0.06623398885000001,0.17097549145000002,0.1989508043
794.0,-0.0735551038,-0.07102123182,0.17258764415,0.20060962100000002
795.0,-0.07544833138000001,-0.068101741015,0.17086560385,0.19882472445
796.0,-0.076385513425,-0.06598750045,0.1734715277,0.20070612100000002
797.0,-0.0736614903,-0.06483144197,0.1734085332,0.199271543
798.0,-0.075761405245,-0.0680770155,0.1726686765,0.20047568925
799.0,-0.081191250345,-0.06749541686999999,0.17068392335,0.2007520537
800.0,-0.07652751285500001,-0.07057186630000001,0.17117776634999998,0.20035619664999998
801.0,-0.07713982089999999,-0.06491799094,0.1716763526,0.1990960415
802.0,-0.07614599078,-0.0652438125,0.17239183409999997,0.19946031165
803.0,-0.07342911523500001,-0.065707078055,0.17457333819999998,0.20046445340000002
804.0,-0.07694189248,-0.064966642755,0.17224343375,0.19952214775
805.0,-0.07131133204500001,-0.067703821065,0.17475120360000002,0.20054394525
806.0,-0.075194847015,-0.06789767553,0.17391730115,0.2012755409
807.0,-0.08030027056,-0.06385936056,0.1694665334,0.198103653
808.0,-0.07812105708,-0.06856228172500001,0.1722795904,0.20121975009999998
809.0,-0.075126205975,-0.06995434628,0.1717407161,0.20010569105
810.0,-0.07881011065999999,-0.06307714376000001,0.17308173510000002,0.2003759222
811.0,-0.078325091235,-0.067824117445,0.17047956805,0.19950786885
812.0,-0.08143117627499999,-0.068975647855,0.16812939799999999,0.1991468868
813.0,-0.08361770733,-0.068288110285,0.16890993640000002,0.20046546240000002
814.0,-0.079724249575,-0.07345302313,0.16883027745,0.2006455499
815.0,-0.078837705965,-0.07279983067000001,0.17035797195000002,0.2013421656
816.0,-0.079618739625,-0.07013746194500001,0.1678045414,0.1985372478
817.0,-0.078596357315,-0.069049271325,0.16441290715,0.19491307585
818.0,-0.075350362155,-0.06407731701,0.15825256885,0.18663898839999998
819.0,-0.08487228844,-0.053586433275,0.15546063464999998,0.18595830045
820.0,-0.07395584373,-0.05139731362,0.1565491672,0.1821073098
821.0,-0.077319731785,-0.055865085315,0.15570672354999998,0.18262065275
822.0,-0.073817007125,-0.052600890875,0.15752189500000002,0.18176633679999998
823.0,-0.068778919915,-0.05574834811,0.16028586904999997,0.1831833497
824.0,-0.06234042882,-0.05944107188,0.16135434835,0.1829874267
825.0,-0.062828464975,-0.060538319815,0.16138688785,0.18353552315
826.0,-0.07147898126499999,-0.063900765075,0.15625285415,0.18333313304999999
827.0,-0.069304525925,-0.065334612545,0.15327123425,0.18050644500000002
828.0,-0.072661588375,-0.059446587275,0.15777302059999998,0.18359400599999998
829.0,-0.0719736455,-0.051984629935,0.16051461960000002,0.18348009129999998
830.0,-0.09850403185500001,-0.0829383548,0.1500828845,0.19905067980000002
831.0,0.033051941919999994,0.073525356695,0.20627013275,0.2345579213
832.0,-0.130537482535,-0.095397406115,0.15936772345,0.2306223429
833.0,-0.08813776508999999,-0.07968835292500001,0.1531056858,0.20085192055
834.0,-0.23970001935000002,-0.01335375756,0.036798380315,0.24334741205
835.0,-0.14863964158499998,-0.017042479649999998,0.41047237275,0.74272223
836.0,-0.5202801301,-0.83552115875,-0.0222552456,1.0526196464500002
837.0,-0.063597159345,0.046849761175000004,0.07972129065000001,0.3539521517
838.0,-0.13183682450000003,-0.17706051715999999,-0.019576261900000003,0.95960369055
839.0,-0.17957025515,-0.1371053184,0.1576359704,0.4576965617
840.0,0.050026923815000006,-0.58002333185,0.10749572405,0.6829984188
841.0,-0.088215540395,-0.089311729935,0.1618416631,0.2088182466
842.0,-0.11832487395,-0.071338547585,0.146751207025,0.22746096510000002
843.0,0.02479881697,-0.1425784612,0.2431098113,0.31256086355
844.0,-0.031920269050000005,-0.103976605075,0.20786083918,0.346246773
845.0,-0.002696419950000001,-0.141862077,0.2054573186,0.3089398311
846.0,0.096394764622,-0.18827127205,0.2622904616,0.35990027635
847.0,-0.07558754185000001,-0.12287174116999999,0.164464804425,0.34820104944999997
848.0,-0.19734313694,-0.09071683364,0.089932586255,0.28000377465000004
849.0,-0.27020530427,-0.059856077925,0.061251129810000006,0.35096826425
850.0,0.05493773020000001,-0.13420242805,0.25005394999999997,0.34948359695
851.0,-0.034041062055,-0.090082779005,0.1909176623,0.2256096224
852.0,-0.129149371405,-0.061015739235000005,0.12352798802500001,0.23269929065
853.0,-0.17950937825000002,-0.04161735696,0.09689439499,0.2261361367
854.0,-0.10138338958499998,-0.043245288695,0.145626627125,0.26441887124999996
855.0,-0.04922299184,-0.061275500125,0.1763015013,0.20003258164999999
856.0,-0.08140534693999998,-0.064270005525,0.14973695005499998,0.26225116335
857.0,-0.18274755738,-0.068490084275,0.086051354925,0.24507716969999999
858.0,-0.154936145345,-0.042428569185,0.10548506009,0.24904342965
859.0,-0.11705987587,-0.037363140685,0.1308637365915,0.3023032556
860.0,-0.05649285057,-0.058885299744999994,0.1703417069,0.20689476345000002
861.0,-0.100779433875,-0.058978551155,0.150643241725,0.2416801466
862.0,-0.113278579305,-0.057505610139999996,0.13493824727450002,0.2959280082
863.0,-0.16603847371500002,-0.07027153174,0.10870656030499999,0.2619784702
864.0,-0.14908852075,-0.051119967764999996,0.115972293795,0.2036510774
865.0,-0.08552715738,-0.048116972485,0.16014936935000001,0.18880296000000002
866.0,-0.07697102379999998,-0.070624631555,0.17522974618999998,0.3099205738
867.0,0.044833831399999996,-0.1324850554,0.25113569275000003,0.34581856055
868.0,-0.016098873,-0.15186221545,0.19864936449999998,0.28472919295
869.0,-0.158698297488,-0.06770636888449999,0.121280900855,0.2766679687
870.0,-0.19966999689999998,-0.06166962974000001,0.096359215065,0.2385664319
871.0,-0.11030200058,-0.0554559567875,0.15019866672499999,0.2759441945
872.0,-0.018326457599999985,-0.11198729431500001,0.204696346995,0.42736544909999996
873.0,0.0424120464,-0.05885872765,0.2547755166,0.2649031811
874.0,-0.04927984375,-0.10851047079,0.19798750822,0.30784208015000003
875.0,-0.017343074555,-0.12073472000499999,0.22635472769999998,0.26647166894999996
876.0,0.0327550608,-0.090896833525,0.249768851285,0.362989833
877.0,0.0663999133,-0.1308622621,0.2764217034,0.36631215679999996
878.0,0.06635353748,-0.148738408085,0.26305871375,0.32827775719999996
879.0,-0.099068263205,-0.064253604595,0.156590632005,0.25265502045
880.0,-0.13096688582000002,-0.062331304545,0.13365050462,0.27981610495
881.0,-0.151088215435,-0.06792315467,0.12482935935,0.23221880579999998
882.0,-0.12076737481,-0.063330305573,0.14355303895,0.21553572165
883.0,-0.12744984381000002,-0.0657373373245,0.14170015785,0.22541573065
884.0,-0.11864122120500001,-0.047370853885,0.14081070134,0.2298061614
885.0,-0.11843591167,-0.0646467191,0.148445516635,0.29690561025
886.0,-0.11900897985,-0.058199018405000004,0.148315127973,0.3340896858
887.0,-0.13702015914,-0.060413606645,0.1375004151515,0.30920798785000003
888.0,-0.119557377795,-0.060623082450000004,0.14141587384299997,0.30719298715
889.0,-0.11454897648500001,-0.055187234434999996,0.146609189305,0.30082556005
890.0,-0.120886129015,-0.05614441563,0.142826195788,0.31829167185
891.0,-0.13148227383,-0.060466028135,0.137654784109,0.29337801269999997
892.0,-0.12581168412000002,-0.055333322840000004,0.13433231667,0.28070210419999997
893.0,-0.024226913169999996,-0.081674309945,0.21169343925,0.26594765395
894.0,-0.13812375802000001,-0.06131591979999999,0.126631109529,0.29359593375000004
895.0,-0.18247531709999998,-0.072417573795,0.10489987796,0.22771423895
896.0,-0.10547917231000001,-0.074142586625,0.148516511155,0.2247852149
897.0,-0.037765809935000005,-0.07119980777,0.20670920295,0.2664448799
898.0,-0.0588791605,-0.1195629164,0.18690893018000002,0.42564037485
899.0,-0.19017661949,-0.084807491565,0.131006670505,0.4012343248
900.0,-0.194904545855,-0.088812853415,0.105034648105,0.30532760525
901.0,-0.078226483436,-0.122418866185,0.16973186895,0.2412476912
902.0,-0.142731473065,-0.14003901560999998,0.136567011785,0.30772234415
903.0,-0.1214781299,-0.11690179484999999,0.13455440177,0.44008643895
904.0,-0.09567257336999999,-0.15179996925,0.164994334435,0.3200983565
905.0,-0.15744328947000003,-0.11981484629,0.119890884685,0.37428775525
906.0,-0.041856631549999995,-0.13443022710000002,0.20057698983150002,0.41632498915
907.0,0.0585938911,-0.1721994439,0.263249049,0.40427092735000003
908.0,-0.06588225459000001,-0.155426448435,0.18726895511,0.30488213085000004
909.0,-0.240341687285,-0.0884422106,0.07300841204999999,0.41204826910000003
910.0,-0.07553165305000001,-0.13779833405,0.16819291935000003,0.33291124149999995
911.0,-0.04785216745,-0.15419812535,0.191025585825,0.32036649824999996
912.0,-0.1542643533,-0.042755355485,0.11765462615,0.19915294095000002
913.0,-0.040475848205,-0.07887552994,0.20172973965000002,0.2204548341
914.0,0.062539507148,-0.15369114914999998,0.26124004065,0.31904097205000004
915.0,0.02122276799999999,-0.1590236673,0.249163183055,0.39203501475
916.0,-0.17467242575,-0.03798732681,0.107379788455,0.22864003119999998
917.0,-0.021828611895000002,-0.14922768912,0.18631138695,0.27684101575
918.0,-0.24126615325,0.022023696439999997,0.082926158615,0.2709529269
919.0,-0.04596850986999999,-0.112620218555,0.18790976825,0.25819169540000003
920.0,-0.02171205992,-0.16667215975,0.2036985305,0.28656399585000003
921.0,-0.19879931395,-0.1398003465,0.06835989121,0.25824455925
922.0,-0.16557208375500002,-0.103831691545,0.109009734335,0.34700227294999997
923.0,-0.08721860251,-0.083581191205,0.17901080753999998,0.249266616
924.0,-0.029134961755,-0.15963661705499999,0.19050839935,0.25863395955
925.0,-0.1266602663,-0.13999501565,0.1474572177,0.43472166335
926.0,-0.17594241463,-0.06795291133,0.09691763387,0.29680567609999997
927.0,-0.1795238665,-0.0314942322325,0.10748174708,0.21551480369999998
928.0,-0.08270490823499999,-0.12370973931500001,0.17030631530999998,0.3247281627
929.0,-0.19129721430000002,-0.11768401255,0.10867284382,0.3915582548
930.0,-0.13388048235,-0.11660084570000001,0.152783292225,0.42907683944999997
931.0,-0.08621480381999999,-0.109965335385,0.16128440645,0.22107425990000001
932.0,-0.141674694125,-0.10304145592,0.1476191330285,0.35418921555000005
933.0,-0.206448935555,-0.08526424168,0.10446915125000002,0.43256439885
934.0,-0.10669089590000001,-0.134556395,0.168794442925,0.41824730525
935.0,-0.11762756745,-0.1085883723,0.16613157903,0.40452206795
936.0,-0.171210575885,-0.100304980735,0.11258189537499999,0.2585373224
937.0,-0.22853646065,-0.10262765259,0.075330478375,0.2903635366
938.0,-0.05800529175000001,-0.1605770495,0.201531538265,0.36169129345
939.0,-0.015809788865000004,-0.09519299355,0.2084693164,0.2440599911
940.0,-0.12669314655,-0.037816842395,0.13452802005,0.1888443178
941.0,-0.11278355435,-0.04938134426,0.14271428725000002,0.1885276785
942.0,-0.1020818391,-0.045288934535000006,0.1538678322,0.19013604895
943.0,-0.1027756558,-0.043923303365,0.15124493185,0.18806751685
944.0,-0.10624946725000001,-0.047118273530000004,0.1492979746,0.1892167567
945.0,-0.10413692305,-0.04863448993,0.15044472744999998,0.18932806479999997
946.0,-0.10700906345,-0.04971834512,0.14845430664999998,0.1896354402
947.0,-0.10824495105,-0.050089971975,0.14648092480000002,0.18890516845
948.0,-0.10738391545,-0.056679132849999994,0.1463008956,0.19015347885
949.0,-0.11251979200000001,-0.056508674045,0.1421689485,0.18998151735000002
950.0,-0.11358957145,-0.05170177759,0.14208285835,0.18941858909999998
951.0,-0.11216218205,-0.051922520900000005,0.14279325064999998,0.1888863587
952.0,-0.14777951015000002,0.008120605335000003,0.14353360785,0.21413150105
953.0,-0.068615953355,-0.128564918755,0.129300439,0.20613725845
954.0,-0.1676247798,0.00063587005,0.12847222260000002,0.21537755905
955.0,-0.09348932902,-0.053839401594,0.134348892,0.17726784275000002
956.0,-0.1216865235,-0.057055045035,0.13359019379999998,0.18980496565
957.0,-0.10907458335,-0.058076544225,0.13685910645,0.1849388093
958.0,-0.1081221104,-0.05929604653,0.1391708312,0.1859433574
959.0,-0.12324160035000001,-0.05639249359,0.12799689975,0.18644572850000002
960.0,-0.12187730345,-0.06366303203,0.1273621579,0.1874355349
961.0,-0.12162599460000001,-0.056584391045,0.12916822905,0.18627129679999999
962.0,-0.1221705145,-0.05044766917,0.13050084985,0.18575282165
963.0,-0.115809802,-0.049351464385,0.13546682855,0.18523425345
964.0,-0.10740896255,-0.05459580535,0.14192654215,0.1863067307
965.0,-0.113422613,-0.04996694675,0.138661748,0.1862579894
966.0,-0.10658380715,-0.05190281594,0.1449219225,0.18750176995
967.0,-0.1108698618,-0.05769807195,0.13857488025,0.18717213025
968.0,-0.11264728055,-0.054017060544999995,0.1370667301,0.18551409365
969.0,-0.10938544205,-0.05705445907,0.1371570232,0.18449303655
970.0,-0.11147796435,-0.06037665043,0.1357494213,0.18574495205
971.0,-0.11186314765,-0.058464269784999995,0.13642583954999998,0.18587316809999999
972.0,-0.11484421765,-0.056916757745000005,0.1343703966,0.18569944589999998
973.0,-0.1152214594,-0.05963336863,0.13191188125,0.1850276158
974.0,-0.10898253155,-0.05897170744,0.13719126445000002,0.18487612305
975.0,-0.1162745926,-0.053002162990000004,0.13225286965,0.1839209642
976.0,-0.11321020685,-0.052696436435,0.13433742999999998,0.18343176184999999
977.0,-0.1096734234,-0.052503754635,0.1364077305,0.1827390539
978.0,-0.11053258155,-0.050216698850000005,0.13797277445,0.1837882619
979.0,-0.10742594305,-0.052630182355,0.13801060990000003,0.1826465103
980.0,-0.10453242125000001,-0.05439590736,0.14418419135,0.18621547315
981.0,-0.10803782540000001,-0.05176800255,0.14008667905,0.18436048495000001
982.0,-0.1110737448,-0.049374392254999996,0.1368025791,0.1830147599
983.0,-0.1100320518,-0.05054980144,0.1389159672,0.18428499185
984.0,-0.10622724275,-0.05263021825,0.14092700819999998,0.18416013450000002
985.0,-0.10865684055,-0.054973352815,0.13897865665,0.18479856465
986.0,-0.1051378937,-0.05638377595,0.1424403836,0.18581285235
987.0,-0.10822314599999999,-0.053010994205,0.14149895350000002,0.18589107324999998
988.0,-0.11190375325,-0.051079418255,0.13872723875,0.1854316577
989.0,-0.10773845415,-0.05332653156,0.14015392035000002,0.18467181805
990.0,-0.11149229045,-0.05328047599999999,0.1388918493,0.18591163415
991.0,-0.1097540719,-0.055572188845,0.13893213180000002,0.1856207003
992.0,-0.10807104649999999,-0.055654564045,0.14004561755,0.18545123985
993.0,-0.1117234544,-0.05429030836,0.13606718225,0.18424612885
994.0,-0.11240709574999999,-0.0539974533,0.1368147917,0.18513895775
995.0,-0.11275175505,-0.054659615395,0.1368801057,0.1855725373
996.0,-0.11097751205,-0.054692302134999995,0.13951654260000002,0.18648879969999999
997.0,-0.10662037545,-0.054153727765,0.1416791859,0.18541317975
998.0,-0.11299052395,-0.053854015955,0.138409938,0.18664212235
999.0,-0.11400018795,-0.055025456444999996,0.137202717,0.18668841365
1000.0,-0.11122704689999999,-0.056229475944999996,0.14028047755,0.1876720969
1001.0,-0.11198512615,-0.055761023295,0.1376056516,0.18602235825000002
1002.0,-0.11377507775,-0.05510509526,0.13770243399999998,0.18693230225000002
1003.0,-0.1123693511,-0.05187305808,0.13834138215,0.18571789319999998
1004.0,-0.1139389618,-0.050144751195000004,0.13825457435,0.1860561329
1005.0,-0.11778965785,-0.050589474339999996,0.13654091815000002,0.18745907515
1006.0,-0.10160013435,-0.049533765791500005,0.15843204924999998,0.20167735404999998
1007.0,-0.12826568485,-0.04113397193,0.1351734627,0.19175845730000002
1008.0,-0.1136552319,-0.04734596051,0.1443002857,0.18970538599999998
1009.0,-0.11965419365,-0.061046756325,0.13780055795,0.1924576383
1010.0,-0.11652708795,-0.047162350615,0.13871744435,0.18724843940000002
1011.0,-0.12282280385,-0.053876971045,0.13663100044999998,0.1914609053
1012.0,-0.12517988875,-0.052627554019999995,0.1356933307,0.1919705226
1013.0,-0.1211035365,-0.04735221749,0.13989222234999998,0.19100770244999998
1014.0,-0.11900928715,-0.043284946874999994,0.1424253679,0.1905844843
1015.0,-0.11800102495,-0.049071486580000004,0.1426539289,0.19155503010000002
1016.0,-0.11732159415,-0.05282669238,0.13969181320000001,0.18994404450000002
1017.0,-0.11274888525,-0.05504282336,0.14282818684999998,0.19011133405
1018.0,-0.11195146855,-0.051723052615,0.14491026665,0.19028656145
1019.0,-0.11352897035000001,-0.05457183939,0.14452660495,0.1917521614
1020.0,-0.1071077467,-0.05402502666,0.14798230735,0.190506441
1021.0,-0.11314177375000001,-0.052105421405000005,0.14508627335000002,0.19125555854999998
1022.0,-0.1127739267,-0.050835736925,0.1462775484,0.19157813315
1023.0,-0.10807587660000001,-0.051673988505000004,0.1483147495,0.19067748294999998
1024.0,-0.1084924084,-0.051260679235,0.146647484,0.18948691010000002
1025.0,-0.11063758405,-0.052631948675,0.14682610435,0.19124430315000002
1026.0,-0.11039885315,-0.052323483835000004,0.14580199594999999,0.19024251855000002
1027.0,-0.11143082085,-0.052514149875,0.1446918633,0.1900617893
1028.0,-0.11227591605000001,-0.05165301362,0.144150041,0.1898777967
1029.0,-0.1105629054,-0.050307597235,0.1474630745,0.19107455439999999
1030.0,-0.11278154365000001,-0.0463992169,0.14616610515,0.19037271765
1031.0,-0.11245404425,-0.048168748345,0.14573504315,0.19027718485
1032.0,-0.1081548532,-0.052635949755,0.14789328499999999,0.19063189014999998
1033.0,-0.11280401044999999,-0.04848268716,0.14462122865,0.18971747055
1034.0,-0.11445511215,-0.05096430094,0.14479673445000002,0.1914822514
1035.0,-0.11283249065,-0.05157737505,0.14456102615,0.19049908929999998
1036.0,-0.11700219149999999,-0.04936899496,0.1409002762,0.18968707195
1037.0,-0.10834889035,-0.048837683045,0.1494448481,0.19116456375000002
1038.0,-0.1413986735,-0.03324640723,0.1370679329,0.20114593545
1039.0,-0.07128463026,-0.088517659985,0.1636743624,0.20271056115
1040.0,-0.144992392755,-0.03210940618,0.122515460705,0.2203600028
1041.0,-0.10894176460999999,-0.08552746603,0.13940040645000001,0.20022885885000002
1042.0,-0.14890392125000002,-0.01609404013,0.11348680780999999,0.1908538279
1043.0,-0.08487494948,-0.072080268785,0.12377845891,0.17282407290000001
1044.0,-0.11832383497000001,-0.059010035945,0.13530786318000002,0.2006636801
1045.0,-0.12465956473999999,-0.062594622995,0.1386538222,0.21025504325
1046.0,-0.079570343435,-0.05952858156,0.17596659739,0.26561425780000003
1047.0,0.057559509429999996,-0.13884043499999998,0.26447359595,0.30618068085
1048.0,-0.128003181,-0.1570813467,0.1417561486,0.2472936907
1049.0,-0.008819648600000007,-0.1325201108,0.22801454638500002,0.332443372
1050.0,0.010106710300000002,-0.12247355675,0.227352811875,0.37318144775
1051.0,-0.07596563775,-0.13900895865000001,0.17888980708000002,0.31968296325
1052.0,0.0179033433,-0.15760916756999999,0.2354551657,0.3393715053
1053.0,-0.012146787039999996,-0.13601934532,0.20775122115,0.27102572465
1054.0,-0.06450126415,-0.094946821695,0.17997563784999998,0.24442043445
1055.0,-0.11067675556,-0.071391298051,0.14174948505,0.21336720145
1056.0,-0.163019956175,-0.05745849226,0.109076935025,0.2637949275
1057.0,-0.12998745773,-0.0631551952445,0.12633415167849998,0.30794753155
1058.0,-0.13050836672,-0.0529719607161125,0.129551217444,0.29224510805000004
1059.0,-0.121363426525,-0.062718821905,0.13505031841,0.3216340572
1060.0,-0.062851637135,-0.09823541226499999,0.18242952557,0.28105967495
1061.0,0.030902951949999993,-0.1598168649,0.24405711142,0.40443882119999996
1062.0,0.029840579899999983,-0.1770428031,0.24301410234,0.41829770515
1063.0,-0.10985640495499999,-0.066617609785,0.1437260735144,0.31194669625
1064.0,-0.09548154923,-0.057306568064999994,0.152062711925,0.25348510869999996
1065.0,-0.12265694239,-0.045329284285,0.13709357766000002,0.22612442395
1066.0,-0.09983444214500001,-0.066470511375,0.1462913657,0.1975475015
1067.0,-0.015730812450000006,-0.11616779965,0.21497110952999998,0.3443904756
1068.0,0.011369975199999993,-0.12579416255,0.25039876315,0.3606940367
1069.0,-0.13510930697,-0.106589792255,0.13805937296999998,0.26535012864999996
1070.0,-0.12926854406,-0.046734951795,0.12566971778000002,0.2107855259
1071.0,-0.10645324736,-0.051995284855000004,0.15598643943,0.24087533545
1072.0,0.0036624273,-0.091488929985,0.23019525795,0.2729100804
1073.0,-0.09284973314,-0.06997206649,0.15439290560000002,0.20492097325
1074.0,0.018913459015000002,-0.12412373030000001,0.24511816529999997,0.29178275505
1075.0,-0.032515720299999995,-0.16250179074999999,0.20329082582000002,0.33604075205
1076.0,-0.061241296615,-0.1646872936,0.18390406175000001,0.27767907985
1077.0,-0.0249868726,-0.173577768475,0.20220477995,0.28248822765000003
1078.0,0.0026090859999999966,-0.17037349863999998,0.2268148134,0.3331837099
1079.0,-0.005913583,-0.1855973102,0.21360843889999998,0.3366337643
1080.0,0.018046071349999998,-0.184553368,0.2285889881,0.3312203185
1081.0,0.05771718545,-0.17586303505,0.25854557005,0.37533462365000003
1082.0,-0.06368147040000001,-0.11632244104,0.18050993097,0.35460763539999995
1083.0,0.01733832369999999,-0.13409788109999998,0.24682321451,0.39675195755000003
1084.0,0.042642840900000006,-0.14066009385,0.2691777832,0.3586830258
1085.0,0.050447359950000006,-0.1432234369,0.26260233625,0.36726954745
1086.0,-0.023002073149999996,-0.07949880341,0.21086698915000002,0.27530180530000004
1087.0,-0.096564667445,-0.054828175539999996,0.14938899644999998,0.1864825397
1088.0,-0.10835260534999999,-0.055908287495,0.1412967962,0.18667520055
1089.0,-0.10909959959999999,-0.033092896785,0.1434208847,0.18849226284999998
1090.0,-0.1143007093,-0.05936832835,0.14272491069999999,0.19316431285000002
1091.0,-0.09425824977,-0.05155502169,0.1527291313,0.1878189745
1092.0,-0.10820835858,-0.045528214639999995,0.15072323195,0.1918321395
1093.0,-0.09145829963499999,-0.04310683034,0.15967441155,0.1916305086
1094.0,-0.1148712577,-0.041647343795,0.1442780815,0.18971261615
1095.0,-0.094810357155,-0.03489321565,0.1545446903,0.1852476574
1096.0,-0.073771247675,-0.034196222566,0.1731677633,0.19323409344999998
1097.0,-0.1396190053,-0.05303225913,0.1264801835,0.19701400295
1098.0,-0.10535653474500001,-0.046402867619999996,0.15363078835,0.1921481846
1099.0,-0.09584833326,-0.0443032945,0.1592579253,0.19109038115
1100.0,-0.09194276801500001,-0.04617443761,0.16117912239999999,0.1912258095
1101.0,-0.09945223269,-0.053014076755,0.15162891315,0.18896748645
1102.0,-0.1041673068,-0.06537732133,0.1455830208,0.1915490024
1103.0,-0.058460117000000006,0.033461975995,0.12451635645,0.14380305934999998
1104.0,-0.16838160159499999,-0.06788271106999999,0.16993714495,0.2815887379
1105.0,-0.13731122395,-0.06665686388,0.1237287332,0.19879866140000002
1106.0,-0.1090269031,-0.047598176195,0.1373456717,0.18215839815
1107.0,-0.1185905362,-0.049061394535,0.1315128571,0.18381104269999998
1108.0,-0.12001769940000001,-0.050258133255,0.13247750795000002,0.18576190035
1109.0,-0.12286702764999999,-0.052572222929999995,0.12833484575,0.18532937275
1110.0,-0.13015029685,-0.05425037548,0.11965811979999999,0.18493521845
1111.0,-0.125197063,-0.05742773998,0.12472958055,0.18582335725
1112.0,-0.12335988954999999,-0.057891353605,0.1232038109,0.18370731369999999
1113.0,-0.11526492275,-0.058938975005,0.128183642,0.1821971155
1114.0,-0.1162236787,-0.060171941835,0.1282595092,0.18324648864999998
1115.0,-0.1169656357,-0.06091452204,0.12807042015,0.18383667575
1116.0,-0.1194695335,-0.062142674415,0.12516252395,0.18384923585000001
1117.0,-0.12125317299999999,-0.059851892925,0.1256758874,0.18460613595
1118.0,-0.118083795,-0.061701521154999994,0.12877486755,0.1853000588
1119.0,-0.11847158875,-0.060164402214999996,0.12908975644999998,0.1852586956
1120.0,-0.11796890474999999,-0.056400690675000004,0.12956081005,0.18412137355000002
1121.0,-0.12047731255,-0.055902436434999994,0.1288789869,0.1850763722
1122.0,-0.1153317082,-0.05558783847,0.1328755404,0.18452102404999998
1123.0,-0.11565891345,-0.058262419139999994,0.13283304575,0.185526102
1124.0,-0.11715304105,-0.05300265551,0.13152251390000003,0.18394564894999998
1125.0,-0.1142198184,-0.05375894225,0.13487736025,0.18474341515
1126.0,-0.1163321017,-0.053781470255000005,0.13482457245,0.186019859
1127.0,-0.11355155235,-0.053597302665,0.1340564508,0.18368202905
1128.0,-0.1108983494,-0.056570905995,0.1381113246,0.1859414478
1129.0,-0.1106527081,-0.05279475132,0.13871671730000001,0.18514585495
1130.0,-0.10639971435000001,-0.055898964105000004,0.14305813385,0.18686018685
1131.0,-0.1066896846,-0.05571128067,0.14352645625,0.18732580850000002
1132.0,-0.1110460528,-0.054593870625,0.1423973931,0.18865565865
1133.0,-0.11041177064999999,-0.057179749015,0.14145142215,0.18834759140000001
1134.0,-0.11113199604999999,-0.05697254599,0.1408750472,0.18826773595000001
1135.0,-0.11589006539999999,-0.054508454605,0.13742075805,0.1878460757
1136.0,-0.11115148485000001,-0.058096458775,0.13918277755,0.1873733513
1137.0,-0.10897972889999999,-0.057262070535,0.1403335027,0.18669199855000002
1138.0,-0.11558483935,-0.054813731835000004,0.1358053075,0.18657617329999998
1139.0,-0.11599701425,-0.055551789475,0.13468117625,0.1862644155
1140.0,-0.11091623149999999,-0.05014540915,0.1475536745,0.1914134098
1141.0,-0.101609386095,-0.05508978155000001,0.15105650465,0.19389404724999998
1142.0,-0.10731728004999999,-0.044913863765,0.15147072075,0.19102716505
1143.0,-0.11463046915,-0.049675444294999996,0.14172484899999999,0.18927465295
1144.0,-0.1341347154,-0.051771058585,0.1251940017,0.190733003
1145.0,-0.137716724,-0.05205114042,0.1193017344,0.1894943829
1146.0,-0.1251595,-0.059940314875,0.12660591565,0.1878773185
1147.0,-0.11954259454999999,-0.056847655494999996,0.13417947819999998,0.18849540125
1148.0,-0.1212697131,-0.052384069374999995,0.1342108043,0.1883189529
1149.0,-0.1173406777,-0.05537598484,0.1350742151,0.187321505
1150.0,-0.1146475973,-0.06332001058,0.1357515833,0.18863442235
1151.0,-0.1139533786,-0.06062173802,0.1370251294,0.18825513119999998
1152.0,-0.1118056169,-0.057013586055,0.14118869755000002,0.18892611985000002
1153.0,-0.11357103069999999,-0.05380203389,0.14091757185,0.1888247789
1154.0,-0.11037231115,-0.054719468575,0.14341011815,0.1890635751
1155.0,-0.10280401985000001,-0.052779075245,0.14727452359999998,0.187213504
1156.0,-0.1056836761,-0.049159149585,0.14751618005,0.18801522710000002
1157.0,-0.1075731671,-0.05515389795,0.1456338933,0.18928621965
1158.0,-0.10510479084999999,-0.05540944901,0.1448706354,0.1873710785
1159.0,-0.1078617174,-0.055829674195,0.14331861145,0.18786364789999999
1160.0,-0.10743614139999999,-0.055697588665000006,0.1428984371,0.187271568
1161.0,-0.11104379654999999,-0.05456808867,0.1423326234,0.1885965222
1162.0,-0.1139517183,-0.055054769975,0.1384762477,0.18761143889999998
1163.0,-0.11050814805,-0.058382314625,0.14266790785,0.18973390365
1164.0,-0.10836664835000001,-0.058612280419999996,0.1436102655,0.18926636715
1165.0,-0.11458133115,-0.049099603005,0.14080023765,0.18807979115
1166.0,-0.11230882765,-0.051547866015,0.1440870459,0.18984697785
1167.0,-0.10847671489999999,-0.05094444842,0.1467214006,0.1894845367
1168.0,-0.11135977015000001,-0.051351208440000004,0.14275950095,0.18821515290000002
1169.0,-0.11148885524999999,-0.052051421109999996,0.1429669174,0.18864310065
1170.0,-0.11295558524999999,-0.050989776619999996,0.14096415685000002,0.18770726515000002
1171.0,-0.11322630865,-0.05306436985,0.1413529131,0.1887299331
1172.0,-0.10809911359999999,-0.05275489565,0.1453524699,0.18870470885
1173.0,-0.11224669745,-0.05473982528,0.14322516764999998,0.1900482269
1174.0,-0.11182969675,-0.058565170345,0.14179160045,0.1898465887
1175.0,-0.1101273468,-0.05938756623,0.1422188825,0.1894285443
1176.0,-0.11283830615,-0.05844688343,0.14053610465,0.18947393745
1177.0,-0.11274717614999999,-0.05735521314,0.14151172315,0.1898088812
1178.0,-0.11135489600000001,-0.058996505209999994,0.14259155215,0.19031319505
1179.0,-0.11138400835000001,-0.05617120232,0.14251452395,0.18939949220000002
1180.0,-0.11034714984999999,-0.056525600785000005,0.14294623055,0.18923504465000002
1181.0,-0.10996190245000001,-0.061390740060000004,0.14282802179999998,0.19043122725
1182.0,-0.11220925085,-0.06000250001,0.14171570345,0.1904762231
1183.0,-0.1096821626,-0.060956697615,0.1429226058,0.19020591180000002
1184.0,-0.11271922475,-0.05478625127,0.14323039405,0.1903225504
1185.0,-0.11228816875,-0.0575665696,0.1419112397,0.1899136167
1186.0,-0.1100691273,-0.059491065975,0.1435698858,0.19043823895
1187.0,-0.1152126355,-0.0589393101,0.14151618705,0.19176928135
1188.0,-0.1140678346,-0.053455262095,0.14228268175,0.1900531279
1189.0,-0.110745574,-0.056242648165,0.14382107635000002,0.1900347284
1190.0,-0.11517299715,-0.054987671465,0.1397195827,0.18924458654999998
1191.0,-0.1096402742,-0.059455176799999995,0.14475974915,0.19110267055
1192.0,-0.1183606194,-0.050382655080000005,0.13523674,0.18757230505
1193.0,-0.09719577973,-0.069902742125,0.13996139635,0.1847102689
1194.0,-0.07593729247,-0.020548374794999998,0.15941379675,0.1778187532
1195.0,-0.13092999287,-0.076852420115,0.12995292145,0.21152141254999998
1196.0,-0.16858998190000002,-0.052596187475,0.11201937635999999,0.22158643205
1197.0,-0.18222154429999998,-0.0106988255035,0.09661407946,0.20935533145000002
1198.0,-0.13502561275,-0.04632761107,0.120035818485,0.2022398541
1199.0,-0.124558087645,-0.08628164190500001,0.025168435303,0.15991106704
1200.0,-0.09656841969499999,-0.05881348182999999,0.06876105390000001,0.16766109499999998
1201.0,-0.05678186951,-0.19206313809999997,0.07059115265999999,0.21329741494999999
1202.0,-0.09809630815,-0.08960649029500001,0.006407690844999994,0.1732320871
1203.0,-0.09942510942499999,-0.037773824699999986,0.10605941155000001,0.3977985779
1204.0,-0.047641529145,-0.058926307031,0.1197586373,0.16815443345
1205.0,-0.05907225869999999,-0.21395501075,0.21348972174999997,1.3396852250000002
1206.0,0.15709911,-0.030573526649999988,0.39197467049999996,0.5950712067999999
1207.0,-0.1262360542065,0.25185797139,0.2346807018,0.42165685675000003
1208.0,0.069696951295,-0.073562114905,0.06388579914999998,0.4894091448
1209.0,-0.3497053991,-0.152943988055,0.23212512005,0.46702787290000003
1210.0,0.021371153455000007,0.18400702035,0.102208470392,0.3151242727
1211.0,0.15110044676,0.32422579279999997,0.04680966574499999,0.3896574164
1212.0,-0.055891533975000005,0.07672876643,0.21971913464999998,0.24818734175
1213.0,0.25936798785000004,-0.308802801,0.37951656045000004,0.7738396884000001
1214.0,-0.5632177761549999,0.5022402562355001,0.54284272635,1.554571065
1215.0,-0.16252577110000002,-0.32876579035,-0.09765994164499998,0.5762425438000001
1216.0,0.13472723139999998,0.042134745850000016,0.4145643577,0.5904540233
1217.0,-0.061067766609499995,-0.0753413874,0.16159932955,0.20052171685
1218.0,-0.14637173725,-0.041994652225,0.12198929885,0.1957494025
1219.0,-0.11858675360000001,-0.056072495855,0.1325054474,0.1880262614
1220.0,-0.1055348745,-0.059673168415000005,0.1429279775,0.18838972965
1221.0,-0.12144316315,-0.062906906015,0.13510186585,0.1922774599
1222.0,-0.1146968723,-0.06657451545000001,0.1356968403,0.18982794825
1223.0,-0.10709312085,-0.07493187935000001,0.136962895,0.1893222558
1224.0,-0.1050620087,-0.07236359005500001,0.1406922698,0.18992825270000002
1225.0,-0.10217899865,-0.074690725455,0.14141129145,0.18980954430000002
1226.0,-0.094801391325,-0.07288534218,0.14825240255,0.19047957805
1227.0,-0.099205098045,-0.069642110525,0.14676266305,0.19035665215
1228.0,-0.1068817256,-0.065749487675,0.14252820015,0.18990508265
1229.0,-0.098449983495,-0.06912647815,0.14714542544999998,0.1900917358
1230.0,-0.10273826155,-0.063938255435,0.146303384,0.18990072460000001
1231.0,-0.10532940760000001,-0.060045978380000004,0.14573628560000002,0.18958632755
1232.0,-0.10128201553999999,-0.06465617610999999,0.14632282575,0.18937305185
1233.0,-0.09920275705500001,-0.068290356015,0.1456347251,0.18900297049999998
1234.0,-0.1032325115,-0.06282342590500001,0.14462986285,0.188491016
1235.0,-0.10179640544999999,-0.06687391143,0.14634178955,0.1904076585
1236.0,-0.10001423399,-0.06960597842999999,0.144982963,0.18940657465
1237.0,-0.10438877525,-0.069103305985,0.14210977335000002,0.1894109425
1238.0,-0.09850970904,-0.07395130938,0.1463799838,0.1913114178
1239.0,-0.09878167092500001,-0.069673900955,0.145041731,0.18885997035000002
1240.0,-0.10417893905,-0.067954294385,0.14300832894999999,0.18954104145
1241.0,-0.13849990665,-0.014390623505000002,0.13635138005,0.20480882365
1242.0,-0.09337683222,0.01273728365,0.1674992554,0.26707305125
1243.0,-0.159191140305,-0.0727185812,0.11415947055,0.293542296
1244.0,-0.10333058709500001,-0.07263574424,0.14045696075,0.19066948455
1245.0,-0.10203218705,-0.060906451345,0.139234479,0.18341221575
1246.0,-0.10010947984999999,-0.065881296425,0.14152288024999998,0.1854736663
1247.0,-0.10188769410000001,-0.06332394272,0.1416569732,0.18563324035
1248.0,-0.10492596355,-0.05893905497,0.1386911375,0.1836356271
1249.0,-0.10841982705,-0.06677217331999999,0.1351480257,0.18574018679999998
1250.0,-0.10598747975,-0.07201624664,0.13179685545,0.18384299245000002
1251.0,-0.10263379995,-0.077493472095,0.13258483765,0.184716842
1252.0,-0.10453041134999999,-0.07166646372999999,0.13439926405000002,0.1847318806
1253.0,-0.1025047586,-0.06831079381,0.1353400055,0.18301489085
1254.0,-0.10633241565,-0.067693524895,0.1344854491,0.18433565159999998
1255.0,-0.1080247501,-0.06387965263,0.1333509289,0.1831236505
1256.0,-0.1052414122,-0.065396914405,0.1347539122,0.1830615351
1257.0,-0.1069232282,-0.066406613305,0.1343266661,0.1840949555
1258.0,-0.102810002,-0.070297200545,0.13619279045,0.18455738815
1259.0,-0.09951956810500001,-0.07052447142,0.1379273053,0.18413364565
1260.0,-0.1038135186,-0.06927650974999999,0.13728264085,0.18553655255
1261.0,-0.10333004375,-0.070284613565,0.13576849845,0.1845351663
1262.0,-0.1017807588,-0.071975362435,0.1362019173,0.18464621665
1263.0,-0.10286778120000001,-0.070056105415,0.13598754294999998,0.18434516690000002
1264.0,-0.1015119463,-0.069679475945,0.13842771999999998,0.18526525885
1265.0,-0.09664187256000001,-0.072027207105,0.1404906863,0.18514209855000002
1266.0,-0.1063321497,-0.06214518845,0.13684659165000002,0.1842390487
1267.0,-0.11039008759999999,-0.057554449315,0.13264018205,0.18203445364999998
1268.0,-0.11207397415,-0.062376135525,0.13739380880000002,0.1880078107
1269.0,-0.1162379848,-0.062283856525,0.12616642314999998,0.1826198926
1270.0,-0.11250268005,-0.055248248985,0.13364650784999998,0.18367342895
1271.0,-0.1089374754,-0.05946539871,0.13413969625,0.18279112775
1272.0,-0.1041389457,-0.06065715649,0.1372003762,0.18261950664999999
1273.0,-0.09885552120499999,-0.0661048338,0.13903293784999998,0.18300946995
1274.0,-0.09844336470500001,-0.07076810812,0.1382978614,0.1839186258
1275.0,-0.1044302967,-0.067430996055,0.13421824275,0.18297691955
1276.0,-0.1061626911,-0.06450320103,0.13345844615000002,0.1823262497
1277.0,-0.10660476155000001,-0.06772960746000001,0.13245923939999998,0.18304089145
1278.0,-0.10499985989999999,-0.06734032266000001,0.13356205225,0.18277142685
1279.0,-0.10345127130000001,-0.07169619539,0.13408275455000002,0.18390507755
1280.0,-0.10121542575,-0.07166103426,0.13561511165,0.18377527545
1281.0,-0.10375860425,-0.06660593325,0.1354486289,0.18317370555
1282.0,-0.10036070199,-0.06967388991000001,0.13727728620000001,0.18377338365
1283.0,-0.09638022479,-0.07247818896,0.13901384395,0.18408402000000001
1284.0,-0.10166003309999999,-0.068365955975,0.13596453345,0.183017865
1285.0,-0.1009976443,-0.072495357505,0.1351604056,0.1836617893
1286.0,-0.10347318990000001,-0.06749054685,0.1345994505,0.18273048005
1287.0,-0.1021955053,-0.06655669966,0.1357744743,0.18251183170000002
1288.0,-0.09757954412,-0.07080757703,0.1364368779,0.18209042425
1289.0,-0.10103627175999999,-0.06821888300500001,0.1354344583,0.18223926615
1290.0,-0.10285182085,-0.062039918865,0.13590644615000003,0.1813803816
1291.0,-0.10555587685000001,-0.06422121325999999,0.134762402,0.1828439605
1292.0,-0.10373920865,-0.06704004824000001,0.1334949559,0.181880206
1293.0,-0.1072714769,-0.07203054679500001,0.12771576845,0.18172808215000003
1294.0,-0.11082035325,-0.069938766195,0.1260333335,0.18187115145
1295.0,-0.10290863315000001,-0.06482470205,0.13610565735000002,0.1825384742
1296.0,-0.09743041957,-0.0673593934,0.1402159177,0.1835694702
1297.0,-0.10003682450000001,-0.07035212541,0.13668001875,0.18502021515
1298.0,-0.1048441993,-0.05822127395,0.12100039209999999,0.1706041399
1299.0,-0.12199608545000001,-0.062150825019999995,0.11391501535000001,0.180283692
1300.0,-0.1150783519,-0.055492945434999996,0.12559496344999999,0.17945974404999998
1301.0,-0.1048110709,-0.057957788135,0.12736002000000002,0.1748939001
1302.0,-0.11155459965,-0.05497626842,0.12452852975,0.1759955105
1303.0,-0.11280214264999999,-0.062165486905,0.1199732298,0.17603934635000001
1304.0,-0.1100673736,-0.067941897365,0.1187273881,0.1756140488
1305.0,-0.09919912744,-0.07613192130999999,0.1239094057,0.1760502975
1306.0,-0.0976488083,-0.07040540475,0.1281260976,0.17582380855000002
1307.0,-0.099014990765,-0.07047409188,0.12714964465,0.17589888874999998
1308.0,-0.09412442904,-0.07513965691499999,0.12729038269999998,0.17525064
1309.0,-0.09714407723,-0.072487087535,0.1290793208,0.17708034020000002
1310.0,-0.09498873737499999,-0.072357872205,0.12853860095,0.17544746535
1311.0,-0.099219158055,-0.07649132565,0.1270747905,0.17845103
1312.0,-0.10209886439999999,-0.06962463415,0.12573768345,0.17630780834999998
1313.0,-0.0977269607,-0.07355775504,0.12595474034999998,0.17558482035
1314.0,-0.09676253606499999,-0.078336026935,0.12286871955,0.17493798925
1315.0,-0.10349345765000001,-0.073957904165,0.120841998,0.17545220565
1316.0,-0.09874194851000001,-0.074228698265,0.12402836155,0.17505128949999998
1317.0,-0.09791309986999999,-0.07612253196499999,0.12405923105,0.17542047355
1318.0,-0.09774738761,-0.075696083885,0.1239455153,0.17509142430000002
1319.0,-0.09427793273999999,-0.074557990765,0.12713377795,0.17497122539999999
1320.0,-0.099324935625,-0.06663046550000001,0.1283050649,0.17543867375
1321.0,-0.10035906915000001,-0.06519570367,0.1277915468,0.17508029795
1322.0,-0.09892444848000001,-0.0713358635,0.12582164285,0.17524681855
1323.0,-0.10142408599,-0.07034024559,0.1229410103,0.174225816
1324.0,-0.09968272953,-0.07679919458500001,0.1212757662,0.1747804173
1325.0,-0.10146935139999999,-0.07688528107,0.12059348245,0.175362972
1326.0,-0.1036838934,-0.073147537155,0.11923523585000001,0.17412182285
1327.0,-0.099931854175,-0.075126973825,0.1228507396,0.1752820664
1328.0,-0.09926088599,-0.0774884285,0.1236111087,0.17646222815
1329.0,-0.10207916845000001,-0.070198534,0.12340650635,0.17486960065
1330.0,-0.10228470773500001,-0.073159320015,0.1222656038,0.17542661305
1331.0,-0.1001379036,-0.077491041215,0.12213000795,0.1759236497
1332.0,-0.1030014716,-0.07595536452,0.1205854574,0.1758487775
1333.0,-0.09955217236,-0.07857569675000001,0.122595826,0.17639710995
1334.0,-0.1021720693,-0.0716461055,0.1220678315,0.1745647491
1335.0,-0.10179281415,-0.07203634415999999,0.12331654545000001,0.17538153515
1336.0,-0.099909249915,-0.075722505135,0.12341925365,0.17592611455
1337.0,-0.1056998745,-0.06986407721,0.1220266103,0.17594216029999998
1338.0,-0.1076749622,-0.06629014023499999,0.12201678269999999,0.1757182155
1339.0,-0.10575996785,-0.071855251355,0.1204897586,0.17569671739999998
1340.0,-0.105707176,-0.073531633245,0.11924782765,0.1755065665
1341.0,-0.1070129614,-0.07148576158,0.1179941943,0.17463655675
1342.0,-0.10600768115,-0.066210696905,0.12281517,0.17530884085
1343.0,-0.105554246385,-0.071046701745,0.12692549035,0.17993369269999998
1344.0,-0.10155630112,-0.06651667943,0.1220786004,0.17327893165000002
1345.0,-0.09952727577500001,-0.07577184836,0.12392185985000001,0.17628671375
1346.0,-0.10035957827,-0.076359335685,0.12268934525,0.1759507154
1347.0,-0.09601894497499999,-0.079427179645,0.12528092865,0.17671366384999998
1348.0,-0.094495669125,-0.07660073650999999,0.1244423452,0.1740331042
1349.0,-0.10778198544499999,-0.07300055784000001,0.1238196161,0.18083166925
1350.0,-0.1115077693,-0.060756211245,0.12081365529999999,0.1753855363
1351.0,-0.1086345622,-0.065569766605,0.1212440187,0.1755093365
1352.0,-0.10820343090000001,-0.071855841305,0.11828471639999999,0.17567902940000002
1353.0,-0.10706221695,-0.07236844074,0.11850931265,0.17537498045
1354.0,-0.10799315914999999,-0.06839429752500001,0.1202445885,0.17553030595
1355.0,-0.10445392135,-0.0727800373,0.1203247942,0.17517315465
1356.0,-0.1029434639,-0.07360959035,0.12292441509999999,0.1764262949
1357.0,-0.10483753115,-0.07161285574500001,0.1228771626,0.1766919374
1358.0,-0.100725408655,-0.07618492283,0.12360563125,0.1767494484
1359.0,-0.10023501455,-0.07137455763,0.12576940605,0.1759893795
1360.0,-0.09411864432,-0.068550202585,0.12759047839999998,0.1727846562
1361.0,-0.11209037565,-0.06901659839499999,0.12185841275,0.17972239645
1362.0,-0.10105871395,-0.06958209333,0.12367570589999999,0.17441749565
1363.0,-0.10884661100000001,-0.060890606165,0.1188358246,0.17266432545
1364.0,-0.11857021346499999,-0.0341462605515,0.11458142032499999,0.17817155415
1365.0,0.025014823799999975,-0.07431068079999997,0.29260093826,0.9518653431999999
1366.0,-0.03534686645,-0.027644252950000003,0.14512741625,0.28930598335
1367.0,-0.11841063719999999,-0.36265546415,-0.2596716394,0.49482371575
1368.0,-0.10954400095,-0.16615782841500001,0.14638535373,0.35173828055
1369.0,-0.06037137955499999,-0.10263646593,0.13163719475000002,0.18515673115
1370.0,-0.09308000490000001,-0.07781973869,0.10305671124999999,0.15925280405
1371.0,-0.09153246518,-0.07755975341499999,0.10721769275,0.160904887
1372.0,-0.09015590391,-0.082036476115,0.10596018335,0.1615431382
1373.0,-0.091051181155,-0.08156956944999999,0.10655281280000001,0.16219370945
1374.0,-0.092217934425,-0.07951573496,0.10347208555000001,0.15982930455
1375.0,-0.09426087491,-0.0750725055,0.101760625135,0.15785566045
1376.0,-0.09549662458,-0.068783039825,0.10106279855,0.15513100585
1377.0,-0.09891094161,-0.064612116765,0.096595998265,0.15268532
1378.0,-0.099510398725,-0.065134317165,0.094450148845,0.15204836155
1379.0,-0.09513843431999999,-0.06744553520999999,0.09490606934,0.1503743816
1380.0,-0.091281097845,-0.063686882845,0.09726332092000001,0.14782197754999998
1381.0,-0.094593057855,-0.06997164457499999,0.09634143303500001,0.1522003737
1382.0,-0.091301865045,-0.071166201185,0.09939138274,0.15259089735
1383.0,-0.09697335856,-0.06704775761500001,0.10124133020000001,0.15540338685
1384.0,-0.09278033796499999,-0.071152545585,0.10396306575,0.15648627985000002
1385.0,-0.092690310525,-0.077477281845,0.10237244000000001,0.15834900855
1386.0,-0.097181554335,-0.07755544805,0.09432684313,0.15611030695
1387.0,-0.087212746635,-0.082897736305,0.09639526544499999,0.15423860044999999
1388.0,-0.08857308097,-0.086897036935,0.09676013344500001,0.1573539068
1389.0,-0.09481196931,-0.0915726972,0.09659335727,0.16359961025
1390.0,-0.085989416125,-0.07031081660499999,0.10674461926500001,0.16132322905000002
1391.0,-0.09196612532000001,-0.09018182855500001,0.10311506188,0.1657171527
1392.0,-0.1141308197,-0.07436730974,0.091209400755,0.1640888284
1393.0,-0.096144176655,-0.08559176657,0.09605612452000001,0.1609005118
1394.0,-0.08977550147999999,-0.075103254565,0.10599859,0.15823217165
1395.0,-0.095330231155,-0.08611988977,0.10035626155499999,0.16309740105
1396.0,-0.09578542481999999,-0.08464106681,0.10169746005,0.16339670325
1397.0,-0.099332674745,-0.07534987131500001,0.10172389575,0.16091439015
1398.0,-0.09866659574,-0.075041717655,0.1016388923,0.16030332115
1399.0,-0.1046219097,-0.06426149333,0.1060435167,0.16223941954999999
1400.0,-0.10450363825,-0.06521045788999999,0.10578960685,0.16242042455
1401.0,-0.09545743093,-0.075561430305,0.11131685599999999,0.1650321751
1402.0,-0.09270592952000001,-0.07819896915499999,0.1061815931,0.16132062495
1403.0,-0.088149268505,-0.08503808861500001,0.1068098706,0.16251252955
1404.0,-0.09424030647500001,-0.082617664535,0.1062952039,0.16438372825
1405.0,-0.10566993295,-0.07505602606,0.09805402063499999,0.16254894335
1406.0,-0.1120241834,-0.071475393515,0.094719473665,0.1631978158
1407.0,-0.1105149844,-0.06543642151500001,0.09997504832000001,0.16277437695000002
1408.0,-0.1063233791,-0.06345496892,0.10432685255,0.16194176435000002
1409.0,-0.092706534955,-0.07539644009499999,0.10992521155,0.16237402255
1410.0,-0.098695660385,-0.074288591505,0.106333199,0.1639557197
1411.0,-0.10706082465,-0.063871952795,0.1049383148,0.16298350105
1412.0,-0.11162720785,-0.060476159295,0.1040478434,0.16419509059999998
1413.0,-0.1070591992,-0.06333921565,0.1040541106,0.1622656002
1414.0,-0.11208052485,-0.059921870155,0.10137966322,0.16266647020000002
1415.0,-0.10886089385,-0.06164994694,0.10256266215000001,0.16177695955
1416.0,-0.11069533805000001,-0.062951461615,0.1020907436,0.16326125130000002
1417.0,-0.100766409025,-0.072247547585,0.1050477928,0.16253813945
1418.0,-0.1018283533,-0.072420574005,0.10394847739999999,0.1625475281
1419.0,-0.1030966969,-0.07631105789,0.099116577725,0.1621045203
1420.0,-0.1049045726,-0.07623293351499999,0.09833577216,0.1627957809
1421.0,-0.1071025272,-0.07095493794,0.09990668956,0.16275906425
1422.0,-0.13285628454999998,-0.07444101341,0.08852052872999999,0.17810297619999998
1423.0,-0.071017632415,-0.080595792285,0.11854564954999999,0.1635095339
1424.0,-0.10187857404,-0.05544124624,0.100726930495,0.15491143815
1425.0,-0.1166989505,-0.06275049597,0.1009877473,0.1665977038
1426.0,-0.10078727324,-0.07836179530500001,0.105764523,0.1659820911
1427.0,-0.1060543102,-0.07348214007000001,0.1010571463,0.1639339071
1428.0,-0.09339703366999999,-0.080575315895,0.1082161426,0.16409896940000002
1429.0,-0.08984570413000001,-0.082347797165,0.1117584902,0.1653804847
1430.0,-0.092923873355,-0.08192499532,0.10992629270000001,0.1656462577
1431.0,-0.087130039235,-0.08424310986,0.11226156165000001,0.16523735585
1432.0,-0.098493243035,-0.075043636655,0.10881275600000001,0.16493650815
1433.0,-0.10134021731500001,-0.07516952147,0.10673714995,0.1653044819
1434.0,-0.098516066235,-0.07847103868,0.10640493449999999,0.1649232854
1435.0,-0.095990515095,-0.07978092165,0.10916707955,0.16585163284999999
1436.0,-0.096382555935,-0.07924763812999999,0.11018526810000001,0.16647081085
1437.0,-0.09278043341,-0.081432647455,0.10867145510000001,0.16449912919999998
1438.0,-0.097609532965,-0.08123410822499999,0.1090616222,0.16739989305
1439.0,-0.09722253804,-0.07923248122,0.10838858035,0.16577102345
1440.0,-0.09824952624,-0.07839692189,0.1064275694,0.16471486855
1441.0,-0.10329032725500001,-0.075556981755,0.10269356163,0.16416601660000002
1442.0,-0.10469191555,-0.07607916636,0.100554561085,0.16393043995
1443.0,-0.0961908895,-0.08193869871000001,0.1056489795,0.16472465045
1444.0,-0.09942246395,-0.075905301355,0.1075695218,0.16497798065
1445.0,-0.096599302225,-0.079641021295,0.10760548719999999,0.1650908565
1446.0,-0.092243030135,-0.086127354865,0.1075316671,0.16580306795
1447.0,-0.09803038619,-0.07937944534,0.10806830425,0.1661560759
1448.0,-0.096794084225,-0.0772175256,0.1064086338,0.16328305355
1449.0,-0.093146551735,-0.08394696083,0.10532300675,0.16380772235000002
1450.0,-0.096850667685,-0.08158877917999999,0.1061658973,0.16528260439999998
1451.0,-0.097622812715,-0.07579877976999999,0.10592402414999999,0.16277695855
1452.0,-0.09700419765,-0.08105914024,0.1061257843,0.16509705084999998
1453.0,-0.095857221635,-0.08151036501,0.10503706709999999,0.16393053025
1454.0,-0.098327481745,-0.078536697115,0.10611181389999999,0.16467158615
1455.0,-0.090800881975,-0.085934643135,0.10945557025,0.1661884499
1456.0,-0.08913240416000001,-0.08697340988999999,0.1087044483,0.16534822555
1457.0,-0.099185107335,-0.07998684421,0.10433459689999999,0.16468571795
1458.0,-0.09679380447,-0.08045647083,0.10579299855,0.16444303789999998
1459.0,-0.095678594805,-0.082951737985,0.10578511605,0.16501201465
1460.0,-0.096989341185,-0.07949605597500001,0.1044012899,0.16317677245
1461.0,-0.09395521715999999,-0.08273971461999999,0.1055080012,0.16372463655
1462.0,-0.095366204515,-0.084789402355,0.1042060418,0.16475999405
1463.0,-0.09464079645,-0.08106208757,0.10775064935,0.16473797504999999
1464.0,-0.089682699965,-0.08256666038999999,0.1117761821,0.16539953340000002
1465.0,-0.09620045865,-0.07872346895,0.11076287335,0.16652557745000002
1466.0,-0.09595780524,-0.07389115152,0.11246302015000001,0.16527682685
1467.0,-0.09435654000999999,-0.079288116395,0.11227948525,0.1667589269
1468.0,-0.097987590295,-0.079895277175,0.1075541473,0.16601873135
1469.0,-0.098157650165,-0.079356840185,0.10860692085,0.16653052699999998
1470.0,-0.093688318805,-0.082349238855,0.11035217005,0.1665447511
1471.0,-0.09878580757,-0.0784794669,0.10701430925,0.1654385729
1472.0,-0.09814427853,-0.082914393045,0.1066355482,0.16698443419999998
1473.0,-0.09690223342500001,-0.08164501135499999,0.1074649332,0.16616842305
1474.0,-0.09111141112,-0.04428396624,0.092936867995,0.1395996671
1475.0,-0.21708071135,-0.03528407126,0.055472118960000004,0.22976826979999998
1476.0,-0.107298707945,-0.03837342967,0.08700609950499999,0.14447275915
1477.0,-0.26907999395000004,-0.057590182420000004,0.184478720155,0.36547213785
1478.0,-1.0957055885,-0.7485153388999999,-0.7727766960000001,2.6261427360000003
1479.0,-0.118391396315,-0.155154497275,0.3278906306,0.39569203324999996
1480.0,0.12120887399,-0.054664522885,0.22048346205,0.26484944465
1481.0,0.07405350130499999,0.005736847661,0.21162955625000002,0.22450710465
1482.0,0.028858688955000003,0.034977370356500004,0.2014187462,0.21489059485
1483.0,0.048350473205,0.030975376404999998,0.2150373418,0.2226609543
1484.0,0.13920866092,0.003800128945,0.2573201971,0.3017249844
1485.0,-0.4409230917,0.039716774615000006,0.23812758578999998,0.6097261936
1486.0,0.107007178315,-0.24474797685,0.20238203917,0.7093850849
1487.0,-0.006952549399999999,0.16684370545,0.235897018805,0.30119362255
1488.0,0.06042784506999999,0.09363676879999999,0.24786700585,0.30590477205
1489.0,0.1499855514,-0.01921966847,0.17717875405,0.27321680695
1490.0,0.0273489315935,0.128352674,0.17275592725,0.2192692208
1491.0,-0.033840685049999986,0.19646407351,-0.0192510221,0.3605037284
1492.0,-0.009412408567,0.025333983105,0.2449715918,0.24716561965
1493.0,-0.0233027335985,0.13529390785,0.03602571780000001,0.2086357097
1494.0,0.362079499575,-0.83041472717,0.6350042077,1.1757900455499999
1495.0,-0.50898174995,0.0740660008,0.18754668858499998,0.78227955625
1496.0,-0.3656024414,0.05396696594999997,0.10258055930000001,0.7167260530499999
1497.0,0.122391198565,-0.6462691819,0.12438556915,0.7163466504
1498.0,-0.09083383328,0.01528224578,0.2031664029,0.22624977655
1499.0,-0.097336844795,-0.05643474677,0.15975591114999999,0.19555419400000001
1500.0,-0.11018458025,-0.059028939995,0.16870728235,0.2102516851
1501.0,-0.10559242569999999,-0.052405618439999996,0.1615479186,0.19998820395
1502.0,-0.10338731485,-0.053391618655,0.16394951935000002,0.20108026395
1503.0,-0.09843498581,-0.0535586298,0.16988995275000002,0.20352786374999998
1504.0,-0.1056271835,-0.055864459185,0.16536320335,0.2040545595
1505.0,-0.10703202610000001,-0.05380415316,0.16296687235,0.20228740909999998
1506.0,-0.1042757602,-0.054645106905000004,0.1648702924,0.2026107688
1507.0,-0.099063150475,-0.050923954869999996,0.16580421964999997,0.1997860382
1508.0,-0.102877234835,-0.055083488995,0.1659101913,0.20299983994999998
1509.0,-0.0890423867,-0.05408756964,0.171348641,0.2005352054
1510.0,-0.11980031865,-0.061395757465,0.15703008285,0.20721492260000002
1511.0,-0.069826957746,-0.043527528994999995,0.17504586865,0.20991857365
1512.0,-0.14130135121499998,-0.057530593490000004,0.14477167204,0.24146745190000002
1513.0,-0.11140118704999999,-0.05140310242,0.15749154015,0.20009596159999998
1514.0,-0.10310786350000001,-0.050850928135,0.16349581915,0.19988266025
1515.0,-0.100286035665,-0.05135696375,0.16538919905,0.2001217434
1516.0,-0.09637167645,-0.05620704925,0.16567997095,0.1997932993
1517.0,-0.095283290795,-0.059768270459999995,0.1655475532,0.20020903755
1518.0,-0.09823681917999999,-0.054692378735,0.16256202134999997,0.197699076
1519.0,-0.10925716904999999,-0.053136644885,0.1601750776,0.20108675739999998
1520.0,-0.1260571431,-0.055636654475,0.14743064635,0.20183874805000002
1521.0,-0.12312123885000001,-0.056009037149999996,0.1487840206,0.2010786155
1522.0,-0.12535211395,-0.057836557195,0.14869582845,0.20295670770000002
1523.0,-0.12383816735,-0.05496523683,0.15255120825000001,0.2041208727
1524.0,-0.1217753811,-0.05438015953,0.1493028232,0.2003130072
1525.0,-0.13060841685,-0.061030217905,0.1458754589,0.20511645695000003
1526.0,-0.12487101235,-0.05649363057,0.14956055815000002,0.2029644199
1527.0,-0.10882239645,-0.059462395765,0.1558944799,0.19924648335
1528.0,-0.1273262188,-0.06573097781500001,0.14555274805,0.2043748393
1529.0,-0.10702443125,-0.062134888435,0.16342519579999998,0.20499730105
1530.0,-0.0994831452,-0.05696454274,0.1548482917,0.1928929543
1531.0,-0.1125839,-0.060186592835,0.16060293225,0.2051882055
1532.0,-0.12645489195,-0.060013316195,0.1489929264,0.2051036394
1533.0,-0.107343452565,-0.055962534035,0.15499660765,0.19715561615
1534.0,-0.1189141336,-0.060856099195,0.1496323776,0.2006698192
1535.0,-0.1101102196,-0.06220175524,0.16485862195,0.2077800582
1536.0,-0.1118422264,-0.05862681939,0.1601015016,0.20392010215
1537.0,-0.10745338265,-0.056318264525,0.1470426498,0.19100928005
1538.0,-0.11151709685,-0.05631305619,0.1520450812,0.1970394371
1539.0,-0.108433417965,-0.061741130425,0.1560689099,0.20048329165
1540.0,-0.11553374925000001,-0.059564228855,0.15151281755,0.1998745174
1541.0,-0.10130790928,-0.05561491893,0.15332152295,0.19207762835
1542.0,-0.1206995378,-0.058687665365,0.14660652775,0.1988459566
1543.0,-0.11294956525,-0.05782217504,0.1544032494,0.19987075225
1544.0,-0.12028793185,-0.05895736522,0.15068540349999998,0.20162417035000002
1545.0,-0.1227302621,-0.060925421034999996,0.14617847615000001,0.20035861885
1546.0,-0.1149274512,-0.058383736575,0.15458762809999999,0.2012866131
1547.0,-0.115367058,-0.05748933856,0.15471520405,0.20138074165
1548.0,-0.12175012995000001,-0.060231366280000004,0.14934746599999998,0.2018842714
1549.0,-0.12163221390000001,-0.0616927645,0.1500252096,0.20275608080000002
1550.0,-0.12356851405,-0.058970244935,0.1481722647,0.20176005995000001
1551.0,-0.12008940425,-0.06091041118,0.15233504025,0.2033361071
1552.0,-0.11848822895,-0.059804562325000005,0.15050183055,0.2006907681
1553.0,-0.1203282453,-0.061292284265,0.1517394151,0.20315444205
1554.0,-0.1207629769,-0.059698490825,0.14965354060000002,0.20135810615
1555.0,-0.12047130889999999,-0.06177638069,0.1513925018,0.20310087555
1556.0,-0.1190242843,-0.055580784405,0.1504092898,0.1997464883
1557.0,-0.07851567769,-0.05069693432,0.1588240797,0.19133601044999998
1558.0,-0.12702779165,-0.11673670501000001,0.16901592048,0.264105203
1559.0,-0.1154029055,-0.046046074725,0.15026968755,0.19513761470000002
1560.0,-0.12179554455,-0.060451611635,0.1497130545,0.2025605529
1561.0,-0.1161679588,-0.05577174388,0.1469883509,0.1954852457
1562.0,-0.1245643843,-0.055689126115,0.14566348465,0.1996316676
1563.0,-0.12970235945,-0.059190648065,0.14379912095,0.2024958238
1564.0,-0.1296269651,-0.054980350760000005,0.14313423050000001,0.20078444725
1565.0,-0.1200436969,-0.05579452667,0.14872009765,0.19911177025
1566.0,-0.12152973365,-0.055250881625,0.14926694925,0.20026856054999997
1567.0,-0.10977590065000001,-0.06248410317,0.15363089705,0.19890298285000002
1568.0,-0.11523593795,-0.058944287755000005,0.1519464614,0.1996051399
1569.0,-0.1110910229,-0.061063909195,0.15332784565000002,0.19895129145
1570.0,-0.096451805485,-0.063133922375,0.16259634550000002,0.1993549657
1571.0,-0.09856652835,-0.061331660025,0.1624723616,0.1996925107
1572.0,-0.10534227245,-0.059757121144999994,0.15737044805,0.19858180955
1573.0,-0.102153140785,-0.06226389812,0.1588360567,0.19888173409999998
1574.0,-0.10076264473499999,-0.06258611928,0.1594058542,0.1987025532
1575.0,-0.09639556379,-0.06501110218,0.1623050605,0.1996821395
1576.0,-0.099179917655,-0.06343437554,0.16268851855,0.20085656365
1577.0,-0.09861766734499999,-0.06157235256,0.16151821375,0.19902775405
1578.0,-0.10045021900500001,-0.06466268709,0.16142675865,0.2008247432
1579.0,-0.100841766625,-0.06681939111999999,0.1599063873,0.2005330817
1580.0,-0.10965414644999999,-0.06192399698000001,0.15540727005,0.2000363569
1581.0,-0.1078841187,-0.06154422521,0.1564381189,0.1997582731
1582.0,-0.1030759812,-0.065791695955,0.16048599484999998,0.2017682309
1583.0,-0.10771095254999999,-0.062236085255000004,0.15597858575,0.1995194892
1584.0,-0.10526938715,-0.062632613125,0.15913714685,0.20083227705
1585.0,-0.1074299812,-0.062516282475,0.15573733195,0.19927001585
1586.0,-0.09898557700999999,-0.06568265779,0.16138406454999998,0.20046070345
1587.0,-0.10072923296,-0.06343932521500001,0.16239217849999998,0.20135673310000002
1588.0,-0.10902413615,-0.05716863833,0.1577025648,0.20019948245000002
1589.0,-0.1077990133,-0.058127190355,0.15698882915,0.19926117264999998
1590.0,-0.1007115992,-0.063095007625,0.1610053721,0.20011676235
1591.0,-0.103270616,-0.06130330076,0.16036166085,0.20037340925
1592.0,-0.101512031975,-0.06530165621,0.159784076,0.2002791736
1593.0,-0.096649545935,-0.063028121065,0.16368622305000002,0.20028564765
1594.0,-0.0993268944,-0.062415456014999995,0.16444352695,0.2020052574
1595.0,-0.09965908052,-0.06384700365,0.16363339170000002,0.2019577336
1596.0,-0.103433727675,-0.0600859783,0.1598254641,0.1996771819
1597.0,-0.10965603055,-0.065012112385,0.15525679025,0.20089170275
1598.0,-0.10227240836,-0.067234082825,0.15708521055000002,0.1991703138
1599.0,-0.1017794193,-0.059917629715000004,0.16161510675000001,0.20019978625
1600.0,-0.10346814735,-0.057698354470000005,0.1609853229,0.1998864917
1601.0,-0.10078976767,-0.060533387305,0.16294501455,0.20093455365000001
1602.0,-0.099215787385,-0.062679990405,0.1620075155,0.2000491256
1603.0,-0.10270764375,-0.06498121547999999,0.15986647055,0.20083340514999998
1604.0,-0.10956213249999999,-0.063136352845,0.15528757425,0.20026175235
1605.0,-0.11355842485,-0.060175795404999996,0.1527736868,0.1996526575
1606.0,-0.10850067669999999,-0.063360746035,0.15396010425,0.19877010545
1607.0,-0.10153088935,-0.061389343315,0.156652134,0.1965325015
1608.0,-0.1056386401,-0.05801202821,0.15698539745,0.19791918930000002
1609.0,-0.101688164,-0.060714048555,0.15838797555,0.1977744666
1610.0,-0.1018335675,-0.06409138983,0.1591641325,0.1995269475
1611.0,-0.10092955821999999,-0.06284061506,0.1579150089,0.1977079262
1612.0,-0.1032116012,-0.06481791905,0.15532482295,0.1974375535
1613.0,-0.10630490385,-0.064950095135,0.1558070587,0.1995000322
1614.0,-0.1037819716,-0.060685399550000005,0.1558934323,0.1968709945
1615.0,-0.09976914573500001,-0.06226172334,0.1601380356,0.19868263
1616.0,-0.101119332,-0.06046681851,0.1582282297,0.19741696525000002
1617.0,-0.10727658749999999,-0.06136165461,0.1536976575,0.19722716895
1618.0,-0.11639932985,-0.054080949885,0.14889323525,0.19658402219999999
1619.0,-0.1154323156,-0.050912537674999994,0.1514577272,0.19725213515
1620.0,-0.11505876825,-0.05551250875,0.151511232,0.19821677845
1621.0,-0.12155725265,-0.05353842366,0.15168783035,0.2018463882
1622.0,-0.11318779749999999,-0.051317812904999996,0.15233764575,0.196687718
1623.0,-0.11876403225,-0.05648897318,0.1518174071,0.20099967245
1624.0,-0.11343448505,-0.05567060577,0.15480728755,0.1998930903
1625.0,-0.110488318815,-0.049943036775000005,0.14625480964999998,0.19071393995
1626.0,-0.11402605285,-0.053929070009999996,0.15744603810000002,0.20188106230000002
1627.0,-0.12330091275,-0.055994379915,0.15513610665,0.20616918045
1628.0,-0.11144124820000001,-0.052386997325,0.15198649315,0.1957130872
1629.0,-0.12122959485000001,-0.052704629155,0.1491188144,0.1993339302
1630.0,-0.12006526655,-0.051524072975,0.14869634575000001,0.19794544149999999
1631.0,-0.1174415694,-0.05501940186,0.14996940225,0.19827847064999998
1632.0,-0.1128245692,-0.05698168597,0.1526843576,0.1982181544
1633.0,-0.11331164120000001,-0.054215567085,0.1508170782,0.19628296805
1634.0,-0.10994840855,-0.059405778704999995,0.15222420595,0.1969614447
1635.0,-0.1050732328,-0.060019893034999994,0.15391232505000002,0.19579700335
1636.0,-0.1085970988,-0.05278502722,0.15474686855,0.19640215705
1637.0,-0.10706309965,-0.057489140315000006,0.1553317077,0.19723866295
1638.0,-0.10871761945,-0.056714067235,0.153709149,0.19666054965000002
1639.0,-0.10582391755000001,-0.055485654105000004,0.1570005046,0.1973039305
1640.0,-0.097912173715,-0.061260601505,0.15986546499999998,0.19722840305
1641.0,-0.10632988865000001,-0.057443346354999994,0.157157719,0.19826112569999998
1642.0,-0.1034318147,-0.06055555332,0.15709245805,0.19762394125
1643.0,-0.1047168392,-0.05901478014,0.1585384111,0.1989723512
1644.0,-0.1084835908,-0.056154067555,0.1571370496,0.19903476064999998
1645.0,-0.110050498,-0.058796661624999996,0.1545265619,0.19866970725
1646.0,-0.10959864159999999,-0.06278638002,0.1587510809,0.20287929005
1647.0,-0.10501611025,-0.060877349489999996,0.1587916814,0.1998856842
1648.0,-0.10227011168,-0.06327820101,0.15798056700000002,0.1985507936
1649.0,-0.10847759605,-0.05640047055,0.15187963165,0.19503879600000001
1650.0,-0.11407204139999999,-0.058045667009999996,0.15460076305,0.2007437702
1651.0,-0.10951647049999999,-0.06498014557500001,0.15497386395,0.20064561635
1652.0,-0.10742079069999999,-0.06400888671499999,0.15536735745000002,0.19946916575
1653.0,-0.1087795131,-0.06086905162,0.1550977777,0.1989873303
1654.0,-0.10569033065,-0.06452284383500001,0.1569759356,0.199950984
1655.0,-0.1063534078,-0.06477561073,0.15656322525,0.20004911775
1656.0,-0.1094675179,-0.063556631305,0.15580070935,0.20074702765
1657.0,-0.10243707515,-0.06971737189499999,0.15711582115,0.20011081619999999
1658.0,-0.10616800275,-0.063829193155,0.15617537775,0.19934705855
1659.0,-0.104958051,-0.061942568535,0.15675560970000002,0.1985657013
1660.0,-0.10231043457,-0.06366738354500001,0.15846726355000001,0.1991061078
1661.0,-0.10306807585,-0.065315728575,0.15807014185,0.1996963752
1662.0,-0.10034327304,-0.06713141183,0.1573877813,0.19838618235
1663.0,-0.10065217847999999,-0.06567455216,0.15621629055,0.19712100394999998
1664.0,-0.1046212427,-0.06078094912,0.15307287505,0.19512208544999998
1665.0,-0.10313394515,-0.062597876635,0.15589399705,0.1971335172
1666.0,-0.09892099391,-0.06585679947,0.15944170195000001,0.19885840875
1667.0,-0.099406732315,-0.064405479155,0.1571212018,0.1967769566
1668.0,-0.09956906077,-0.068654411365,0.15816756305000002,0.1991228096
1669.0,-0.10156819680000001,-0.06298831839499999,0.15825286735,0.198315319
1670.0,-0.09997848975000001,-0.06457465941,0.1581048219,0.197925258
1671.0,-0.09848436837,-0.06815394879,0.15788328880000002,0.1981772297
1672.0,-0.10574919734999999,-0.06535566971,0.1539313756,0.19791530210000002
1673.0,-0.1063405272,-0.06591985155999999,0.15420314435,0.19859485705000002
1674.0,-0.10065984675,-0.06582172681000001,0.15804021625,0.198600797
1675.0,-0.104714181,-0.063298988995,0.15724424635,0.1992499892
1676.0,-0.108324559,-0.06565292385499999,0.15503811080000002,0.20020906885
1677.0,-0.1048317876,-0.064073083455,0.1556966929,0.19834660980000002
1678.0,-0.10232128330000001,-0.060279150655,0.1576956862,0.1974112116
1679.0,-0.100493169715,-0.063045855315,0.16007528225,0.19925341905
1680.0,-0.0974024269,-0.061575148164999996,0.16030780195,0.19745013665
1681.0,-0.096248889905,-0.063518567045,0.16083742835,0.1979259488
1682.0,-0.09760535134500001,-0.06577477418,0.1639337279,0.2024250167
1683.0,-0.08453150614,-0.068485230885,0.16325258825,0.19656041165
1684.0,-0.0979098706,-0.06586625084,0.1602341826,0.19903093030000002
1685.0,-0.08817838109000001,-0.0684838049,0.16355903945,0.1980753821
1686.0,-0.09249074997000001,-0.06973067599,0.1633871332,0.20031011365
1687.0,-0.10604257445,-0.06239917481,0.155705878,0.19847138865
1688.0,-0.10197077596500001,-0.06664714474,0.1565313238,0.19839736045
1689.0,-0.1022823847,-0.061303577165,0.15870519555,0.19853466079999998
1690.0,-0.10156821055000001,-0.064251053715,0.1589320706,0.19926361139999998
1691.0,-0.100117609635,-0.06610500159,0.15790121689999997,0.1983230937
1692.0,-0.10158654045,-0.061569686075,0.15655040985000002,0.1965247735
1693.0,-0.09970060984000001,-0.064315243375,0.15911920485,0.1984903098
1694.0,-0.100933438095,-0.06490138071,0.15812919809999998,0.1985349407
1695.0,-0.1073424472,-0.060060633764999996,0.1554250473,0.1982095889
1696.0,-0.1032685477,-0.06360938057,0.1568988656,0.1983134182
1697.0,-0.09997076282,-0.065484265655,0.15757386905,0.19777624594999998
1698.0,-0.10745168555,-0.06245238782,0.15461750619999998,0.19840310255
1699.0,-0.10693830865000001,-0.06528781585,0.1558107054,0.19995382415000001
1700.0,-0.10393449869999999,-0.06354544312,0.1590165777,0.20031805479999998
1701.0,-0.10612806964999999,-0.062286824945,0.15726217145,0.1996968671
